"Time (s)","Linear Acceleration x (m/s^2)","Linear Acceleration y (m/s^2)","Linear Acceleration z (m/s^2)","Absolute acceleration (m/s^2)"
2.189783333E-2,-3.127855454E-1,2.373657314E0,-2.979902480E0,3.822551848E0
3.190383335E-2,-8.083202612E-1,2.140841067E0,-2.059973490E0,3.078972701E0
4.191083333E-2,-7.816926259E-1,1.865726062E0,-7.146279860E-1,2.145383476E0
5.191783333E-2,-3.319259673E-1,1.751269739E0,5.512719834E-1,1.865749540E0
6.192483334E-2,3.799537542E-1,1.809952396E0,1.491573842E0,2.375938774E0
7.193083334E-2,1.101097950E0,1.940006458E0,2.161899814E0,3.106421182E0
8.193783334E-2,1.554666176E0,2.022144928E0,2.432344063E0,3.524536093E0
9.194483334E-2,1.616653533E0,1.817938815E0,2.186194995E0,3.270767301E0
1.019518333E-1,1.112919632E0,1.521876160E0,2.063222203E0,2.794920931E0
1.119578333E-1,2.987625336E-1,1.372476000E0,2.036119773E0,2.473607316E0
1.219648333E-1,-3.671889170E-1,1.518575115E0,1.829387371E0,2.405734032E0
1.319718334E-1,-5.241808100E-1,1.694731257E0,1.816888947E0,2.539284348E0
1.419778334E-1,-2.030434672E-1,1.541963100E0,2.297100888E0,2.774085317E0
1.519848334E-1,-4.368034545E-2,1.442916237E0,3.044118941E0,3.369061496E0
1.619918333E-1,-7.681472585E-2,1.631026427E0,3.995765567E0,4.316513660E0
1.719988333E-1,-1.449357384E-1,1.598030589E0,4.945242292E0,5.199050823E0
1.820048333E-1,-2.339286795E-1,8.996531850E-1,5.737878567E0,5.812688615E0
1.920118333E-1,-4.008387294E-1,-1.987152851E-1,5.720479007E0,5.737947327E0
2.020188333E-1,-5.666988021E-1,-1.045846440E0,5.358945664E0,5.489375277E0
2.120258333E-1,-8.058720320E-1,-1.379791451E0,4.386181818E0,4.668173638E0
2.220318333E-1,-9.696443564E-1,-1.350601566E0,2.818438051E0,3.272297025E0
2.320388333E-1,-8.382449953E-1,-1.058231720E0,1.171188524E0,1.787230149E0
2.420457917E-1,-6.589394695E-1,-1.196119590E0,-1.441566700E-1,1.373202259E0
2.520517917E-1,-7.610213298E-1,-2.139090118E0,-6.632251132E-1,2.365317642E0
2.620587917E-1,-1.295258108E0,-1.932101608E0,-2.396112961E-1,2.338401968E0
2.720657917E-1,-7.266049109E-1,-1.220312153E0,-3.690370756E-1,1.467414328E0
2.820727917E-1,-2.149656475E-1,-8.772723824E-1,-7.351289088E-1,1.164573559E0
2.920787917E-1,1.837092832E-1,-6.030835766E-1,-9.853873998E-1,1.169806492E0
3.020857917E-1,5.710000505E-1,-2.609428158E-1,-1.242898192E0,1.392453995E0
3.120927917E-1,6.456284293E-1,-1.258434829E-1,-1.741691415E0,1.861763045E0
3.220987917E-1,4.337997399E-1,-9.311106205E-2,-2.280665535E0,2.323421435E0
3.321057917E-1,2.021213613E-1,-2.237568632E-1,-2.791110504E0,2.807350713E0
3.421127917E-1,1.156871617E-2,-5.886506018E-1,-3.271325954E0,3.323885807E0
3.521197917E-1,-2.821742751E-1,-9.421332067E-1,-3.571485752E0,3.704422732E0
3.621257917E-1,-6.068537881E-1,-1.176869971E0,-3.735233518E0,3.962986738E0
3.721327917E-1,-1.156249181E0,-1.313685170E0,-3.514944347E0,3.926514313E0
3.821397917E-1,-1.783405159E0,-1.251839462E0,-3.036802320E0,3.737620143E0
3.921467917E-1,-2.209137130E0,-1.024875986E0,-2.607657037E0,3.567987229E0
4.021527917E-1,-2.188127207E0,-7.536862171E-1,-2.123338012E0,3.140781416E0
4.121597917E-1,-1.633299825E0,-6.177203268E-1,-1.853963218E0,2.546846351E0
4.221667917E-1,-1.163216723E0,-7.600652370E-1,-1.840918665E0,2.306459156E0
4.321727917E-1,-9.223455711E-1,-1.028327597E0,-2.065223120E0,2.484617784E0
4.421797917E-1,-6.505984895E-1,-1.375884049E0,-2.897760209E0,3.273125348E0
4.521867917E-1,-2.273110201E-1,-1.537246151E0,-3.710897407E0,4.023127589E0
4.621937917E-1,2.744213423E-1,-1.497048005E0,-3.962355747E0,4.244611038E0
4.721997917E-1,8.352913474E-1,-1.234619997E0,-3.329443184E0,3.647902149E0
4.822067917E-1,1.576230707E0,-5.860778269E-1,-2.137604633E0,2.719805881E0
4.922137917E-1,2.263875547E0,1.894284448E-1,-1.071019288E0,2.511592711E0
5.022207917E-1,2.574548348E0,7.691535643E-1,-3.796889484E-1,2.713680176E0
5.122267917E-1,2.401916614E0,1.031077835E0,-2.686854064E-1,2.627644720E0
5.222337917E-1,2.063492052E0,1.125100186E0,-5.961651510E-1,2.424719110E0
5.322407917E-1,1.659146272E0,7.140265998E-1,-6.780559909E-1,1.929341925E0
5.422467917E-1,1.575882944E0,-7.847694308E-2,-1.260618764E-1,1.582863633E0
5.522537917E-1,1.898519586E0,-5.953892255E-1,5.033160442E-1,2.052362539E0
5.622607917E-1,1.984870829E0,-2.644841820E-1,1.077876318E0,2.274089146E0
5.722677917E-1,1.377128775E0,6.509170166E-1,5.878410548E-1,1.632707485E0
5.822737917E-1,5.761787832E-2,1.513516688E0,-6.299211270E-1,1.640382032E0
5.922807917E-1,-9.586255708E-1,1.622268468E0,-2.490998653E0,3.123426364E0
6.022877917E-1,-1.384498606E0,1.288046883E0,-3.374770215E0,3.868459017E0
6.122937917E-1,-1.302918984E0,1.190429665E0,-2.048205383E0,2.703676378E0
6.223007917E-1,-8.246993355E-1,1.408635474E0,1.046703057E0,1.939064254E0
6.323077917E-1,-2.543456948E-1,1.887171310E0,2.879311659E0,3.452034606E0
6.423147917E-1,-6.587008300E-1,2.173027650E0,3.504305338E0,4.175654661E0
6.523207917E-1,-1.461574118E0,2.024370671E0,4.223335108E0,4.906203720E0
6.623277917E-1,-1.530549920E0,1.221268757E0,3.717108319E0,4.201306308E0
6.723347917E-1,-1.226772303E0,5.389185709E-1,2.525297835E0,2.858764185E0
6.823417917E-1,-7.265134750E-1,5.799125227E-1,1.058246046E0,1.408547144E0
6.923477917E-1,-3.713698954E-1,1.232058916E0,-5.143210888E-3,1.286822142E0
7.023547917E-1,-1.926808123E-1,2.000407611E0,5.237128866E-1,2.076783979E0
7.123617917E-1,-6.346100823E-1,2.310859387E0,1.893827780E0,3.054404152E0
7.223677917E-1,-1.437662806E0,2.200635571E0,2.904797918E0,3.917591378E0
7.323747917E-1,-1.763418792E0,1.457222912E0,3.763034105E0,4.403813135E0
7.423817917E-1,-1.536864036E0,7.105059913E-1,4.051410010E0,4.390978581E0
7.523887917E-1,-9.189665383E-1,-1.351271072E-1,4.194935181E0,4.296538142E0
7.623947917E-1,2.330708564E-1,-1.051349840E0,4.228096495E0,4.363079014E0
7.724017917E-1,1.127158991E0,-1.317632625E0,4.328403726E0,4.662801941E0
7.824087917E-1,1.592150629E0,-1.092646092E0,4.160251837E0,4.586558018E0
7.924157917E-1,1.718519631E0,-9.448433912E-1,3.223396327E0,3.773105171E0
8.024217917E-1,1.312939065E0,-1.123815553E0,1.737998899E0,2.451001950E0
8.124287917E-1,7.237544663E-1,-1.640428750E0,7.267036557E-2,1.794465935E0
8.224357917E-1,2.536379076E-1,-1.788319159E0,-1.221247122E0,2.180335327E0
8.324417917E-1,2.291147217E-1,-1.158091931E0,-1.639058163E0,2.019946073E0
8.424487917E-1,1.012715312E0,-2.935287639E-1,-1.085139729E0,1.513036573E0
8.524557917E-1,1.662232140E0,-2.100799334E-1,-9.517565542E-1,1.926911987E0
8.624627917E-1,1.250597221E0,-7.877316302E-1,-1.390290127E0,2.029142964E0
8.724687917E-1,4.219853675E-1,-1.650880940E0,-1.769752203E0,2.456725949E0
8.824757917E-1,-2.696666606E-1,-2.250917825E0,-1.788084978E0,2.887316930E0
8.924827917E-1,-4.258093735E-1,-1.973508373E0,-1.349841428E0,2.428604702E0
9.024887917E-1,-8.913800692E-2,-1.263310822E0,-9.845202577E-1,1.604113449E0
9.124957917E-1,3.775773726E-1,-6.099069849E-1,-9.726077253E-1,1.208518510E0
9.225027917E-1,7.424033567E-1,-8.492846847E-2,-1.009068038E0,1.255624902E0
9.325097917E-1,8.996300885E-1,-6.796949655E-2,-1.232332274E0,1.527284185E0
9.425157917E-1,6.326935112E-1,-5.247995916E-1,-1.850495235E0,2.024857601E0
9.525227917E-1,-8.998758177E-1,-9.918649453E-1,-2.668893172E0,2.986061507E0
9.625297917E-1,-1.125071388E0,-9.289018348E-1,-2.836428180E0,3.189665980E0
9.725357917E-1,-1.258113817E0,-2.844416061E-1,-2.737140119E0,3.025837642E0
9.825427917E-1,-7.568058528E-1,3.903519309E-1,-2.002296554E0,2.175849540E0
9.925497917E-1,5.841868191E-2,9.672665861E-1,-1.023495458E0,1.409453917E0
1.002556792E0,5.156855366E-1,9.896655151E-1,-6.491046721E-1,1.291009791E0
1.012562792E0,7.343538603E-1,6.676672429E-1,-6.626801527E-1,1.193398560E0
1.022569792E0,9.057643294E-1,5.710367417E-1,-9.725287879E-1,1.446479942E0
1.032576792E0,6.664772614E-1,7.468192470E-1,-1.631819894E0,1.914358142E0
1.042583792E0,1.199349629E-1,8.865238470E-1,-2.114195305E0,2.295676527E0
1.052589792E0,-2.363114382E-1,8.521252620E-1,-2.292020828E0,2.456688835E0
1.062596792E0,-3.894013929E-1,8.794653806E-1,-2.029015406E0,2.245439004E0
1.072603792E0,-3.748820620E-1,1.101812480E0,-5.057595956E-1,1.268983873E0
1.082609792E0,-1.815554796E-1,9.073682937E-1,-5.631506020E-1,1.083244300E0
1.092616792E0,-3.769018731E-1,7.869595054E-1,-9.289430577E-1,1.274478517E0
1.102623792E0,-5.595358533E-1,1.030889847E0,-1.248279970E0,1.712897291E0
1.112630792E0,-5.229484728E-1,1.422527873E0,-1.392668774E0,2.058297104E0
1.122636792E0,-2.760914350E-1,1.785878824E0,-1.236284407E0,2.189517935E0
1.132643792E0,-1.360218408E-1,1.983911154E0,-9.745811605E-1,2.214545969E0
1.142650792E0,-1.738371732E-1,1.886838311E0,-2.249470639E-1,1.908135047E0
1.152656792E0,-5.773138739E-2,1.570089962E0,7.303798002E-1,1.732619420E0
1.162663792E0,-3.716303889E-2,1.428683529E0,1.380117726E0,1.986766885E0
1.172670792E0,2.162446529E-3,1.359074474E0,1.700507137E0,2.176881398E0
1.182677792E0,8.874085307E-2,1.069241442E0,2.522242080E0,2.740959195E0
1.192683792E0,1.873558627E-1,8.717520261E-1,3.358410875E0,3.474762930E0
1.202690792E0,3.729278860E-1,7.756170765E-1,4.376126946E0,4.459948890E0
1.212697792E0,5.343393239E-1,5.050392187E-1,4.824408996E0,4.880113245E0
1.222703792E0,2.006032779E-1,4.616432306E-1,4.311147423E0,4.340431804E0
1.232710792E0,-3.488588095E-1,7.461155346E-1,3.077845681E0,3.186145774E0
1.242718167E0,-8.826531364E-1,1.206655688E0,1.483716938E0,2.106302557E0
1.252725167E0,-1.238436913E0,1.808031293E0,1.260267931E-1,2.195127763E0
1.262731167E0,-1.508750184E0,2.294043964E0,-7.426811725E-1,2.844387483E0
1.272738167E0,-1.466099570E0,2.553942175E0,-6.596852088E-1,3.017822585E0
1.282745167E0,-1.251765641E0,2.802496787E0,3.469188130E-1,3.088892702E0
1.292752167E0,-1.273721497E0,2.556251240E0,1.884735360E0,3.421843689E0
1.302758167E0,-1.053957990E0,1.935362307E0,3.543051327E0,4.172489355E0
1.312765167E0,-5.776440589E-1,7.077159923E-1,4.793319350E0,4.879594756E0
1.322772167E0,-1.029505738E-1,-7.234409094E-1,5.410932673E0,5.460051095E0
1.332778167E0,6.774657876E-1,-1.068456161E0,5.944938414E0,6.078063113E0
1.342785167E0,9.553422131E-1,-1.143616856E0,5.868348075E0,6.054588952E0
1.352792167E0,9.244398245E-1,-1.417006640E0,4.708783815E0,5.003512948E0
1.362799167E0,9.080180655E-1,-1.561773174E0,3.006425450E0,3.507452956E0
1.372805167E0,6.677420872E-1,-1.614120373E0,1.130132884E0,2.080496193E0
1.382812167E0,5.255816932E-1,-1.726708510E0,-7.065079576E-1,1.938275493E0
1.392819167E0,5.038172968E-1,-1.875934131E0,-2.114136248E0,2.870981158E0
1.402825167E0,4.109847815E-1,-2.287343055E0,-2.606982268E0,3.492449468E0
1.412832167E0,7.295652831E-1,-2.188716899E0,-2.317045741E0,3.269777994E0
1.422839167E0,1.088683508E0,-1.920274152E0,-2.389317327E0,3.252925128E0
1.432846167E0,1.274633663E0,-1.771225702E0,-2.222373472E0,3.114622820E0
1.442852167E0,1.133035223E0,-1.813788754E0,-1.792219545E0,2.790277649E0
1.452859167E0,2.531858265E-1,-2.154272706E0,-1.450811732E0,2.609568669E0
1.462866167E0,-4.460698295E-1,-2.178112974E0,-1.340834962E0,2.596342199E0
1.472872167E0,-7.086351746E-1,-2.097390992E0,-1.535375335E0,2.694177092E0
1.482879167E0,-6.811211745E-1,-1.919404671E0,-1.611770961E0,2.597276646E0
1.492886167E0,-2.451565030E-1,-1.619575825E0,-1.654670813E0,2.328317646E0
1.502893167E0,1.836962731E-1,-1.491756275E0,-2.118386005E0,2.597429570E0
1.512899167E0,1.759644999E-1,-1.437231574E0,-2.805603998E0,3.157215845E0
1.522906167E0,-2.473752290E-2,-1.478778380E0,-3.450713852E0,3.754307330E0
1.532913167E0,-3.589676587E-1,-1.470260741E0,-3.943684418E0,4.224117803E0
1.542919167E0,-6.253679732E-1,-1.425547668E0,-4.060948573E0,4.349088936E0
1.552926167E0,-9.332489473E-1,-1.295767547E0,-3.840688053E0,4.159429270E0
1.562933167E0,-1.268820507E0,-1.124817765E0,-3.447817726E0,3.842208682E0
1.572940167E0,-1.515497871E0,-9.743174511E-1,-3.003636328E0,3.502550426E0
1.582946167E0,-1.376568758E0,-6.908666557E-1,-2.749834424E0,3.151797526E0
1.592953167E0,-9.736157852E-1,-4.730491018E-1,-2.885556486E0,3.081905155E0
1.602960167E0,-9.242530060E-1,-3.218395203E-1,-2.914628842E0,3.074554534E0
1.612966167E0,-8.123675577E-1,4.320566118E-2,-2.736767651E0,2.855119079E0
1.622973167E0,-4.239007692E-1,3.770003986E-1,-2.720413574E0,2.778933460E0
1.632980167E0,-1.995514369E-1,5.405253857E-1,-2.749826823E0,2.809543740E0
1.642987167E0,-2.690264453E-1,7.174901980E-1,-2.420669512E0,2.539056577E0
1.652993167E0,-4.034184113E-1,8.489285892E-1,-1.275456659E0,1.584366073E0
1.663000167E0,-7.593958770E-1,8.120870376E-1,1.591062462E-1,1.123157270E0
1.673007167E0,-8.478256582E-1,2.878245127E-1,1.222208405E0,1.515072500E0
1.683013167E0,-7.746940935E-1,-2.508823889E-1,1.784345684E0,1.961372589E0
1.693020167E0,-7.272630881E-1,-4.356158119E-1,1.782696185E0,1.974000613E0
1.703027167E0,-6.746134427E-1,-1.960530478E-1,1.456929089E0,1.617461736E0
1.713034167E0,-5.822280201E-1,3.936099994E-1,9.884232742E-1,1.212806196E0
1.723040167E0,-5.396331006E-1,1.010292445E0,5.101508546E-1,1.253853501E0
1.733047167E0,-7.040946655E-1,1.379479795E0,4.512302166E-1,1.613171569E0
1.743054167E0,-8.824715804E-1,1.423864839E0,7.631739092E-1,1.840810035E0
1.753060167E0,-9.049374600E-1,1.297889501E0,1.347603114E0,2.078331811E0
1.763067167E0,-7.395868260E-1,1.163909326E0,1.999213902E0,2.428688909E0
1.773074167E0,-6.055449620E-1,1.247960419E0,2.215915807E0,2.614263333E0
1.783081167E0,-4.864664152E-1,1.649403057E0,2.243062091E0,2.826394799E0
1.793087167E0,-9.687272206E-2,2.002038400E0,2.287489235E0,3.041405774E0
1.803094167E0,3.913344093E-1,1.991664855E0,1.894673288E0,2.776627159E0
1.813101167E0,6.054280177E-1,2.030572520E0,1.437868336E0,2.560709510E0
1.823108167E0,7.320678914E-1,2.205790184E0,1.375605429E0,2.700689547E0
1.833114167E0,8.811479169E-1,2.073060143E0,1.719997661E0,2.834147484E0
1.843121167E0,9.451806293E-1,1.400202619E0,2.512045705E0,3.027260713E0
1.853128167E0,8.405495292E-1,4.440954441E-1,4.051805867E0,4.161835540E0
1.863134167E0,1.163129307E0,-3.610228819E-1,5.758939653E0,5.886305567E0
1.873141167E0,2.135530918E0,-7.899021167E-1,6.854452928E0,7.222739272E0
1.883148167E0,3.211274756E0,-1.035145158E0,6.801989370E0,7.592817030E0
1.893154167E0,3.750976270E0,-1.060556573E0,5.533773319E0,6.768844093E0
1.903161167E0,3.606460288E0,-7.925301477E-1,3.446336042E0,5.050929811E0
1.913168167E0,3.255106362E0,-4.814924812E-1,1.332494493E0,3.550083663E0
1.923175167E0,2.956361297E0,-4.806577912E-1,-4.629474521E-1,3.030746504E0
1.933181167E0,2.400391076E0,-3.843909869E-1,-1.284046218E0,2.749255979E0
1.943188167E0,2.000450004E0,2.199137807E-1,-1.248213896E0,2.368163892E0
1.953195167E0,2.165730910E0,-1.163516977E-1,-1.516119869E0,2.646232708E0
1.963201167E0,1.840889721E0,-8.735132074E-1,-1.937502973E0,2.811728660E0
1.973208167E0,1.114471994E0,-1.056711736E0,-1.971230298E0,2.498887034E0
1.983215167E0,5.571919969E-1,-1.098012082E0,-2.126541116E0,2.457289273E0
1.993222167E0,2.127170277E-1,-1.317071292E0,-2.589703746E0,2.913158220E0
2.003228167E0,-2.058483034E-1,-1.551547271E0,-2.803981980E0,3.211228333E0
2.013235167E0,-3.269707444E-1,-1.651038815E0,-2.656157936E0,3.144521270E0
2.023242167E0,-3.277794144E-1,-1.615622230E0,-2.519883898E0,3.011227224E0
2.033248167E0,-5.409706512E-1,-1.750350557E0,-2.894201009E0,3.425313971E0
2.043255167E0,-1.041006407E0,-2.064403633E0,-3.658505770E0,4.327831000E0
2.053262167E0,-1.650980343E0,-2.182438744E0,-4.298888735E0,5.096000326E0
2.063269167E0,-2.169857875E0,-2.051192726E0,-4.542005437E0,5.435576159E0
2.073275167E0,-2.398793617E0,-1.833607306E0,-4.628017395E0,5.525836731E0
2.083282167E0,-2.387662565E0,-1.636023750E0,-4.740379829E0,5.554161247E0
2.093289167E0,-2.297200291E0,-1.495030131E0,-4.668708753E0,5.413786632E0
2.103295167E0,-2.313624828E0,-1.485601788E0,-4.492845556E0,5.267402938E0
2.113302167E0,-2.447805855E0,-1.603198651E0,-3.760069567E0,4.764464563E0
2.123309167E0,-2.053126692E0,-1.398096452E0,-2.590760922E0,3.589156595E0
2.133316167E0,-1.409870990E0,-9.375039661E-1,-1.599634480E0,2.329266058E0
2.143322167E0,-9.913077056E-1,-5.073243105E-1,-1.089332183E0,1.557791234E0
2.153329167E0,-9.530446959E-1,-1.572754830E-1,-1.008354678E0,1.396355588E0
2.163336167E0,-1.171135315E0,9.975905389E-2,-1.305982633E0,1.757014636E0
2.173342167E0,-1.425035452E0,2.011909962E-1,-1.674463638E0,2.207947538E0
2.183349167E0,-1.651925545E0,3.245119902E-1,-1.777879833E0,2.448473553E0
2.193356167E0,-1.650509934E0,4.458399609E-1,-1.478443919E0,2.260255016E0
2.203362167E0,-1.485462917E0,3.016803673E-1,-6.934253973E-1,1.666868292E0
2.213369167E0,-1.600727910E0,-3.747506824E-1,3.486881804E-1,1.680580662E0
2.223376167E0,-1.750916860E0,-1.162794554E0,1.625449353E0,2.657044716E0
2.233383167E0,-1.333127747E0,-1.606795565E0,3.073849694E0,3.715854345E0
2.243388042E0,-3.846415401E-1,-1.835174653E0,3.893337552E0,4.321329936E0
2.253395042E0,8.964933497E-1,-1.612909414E0,3.823696629E0,4.245684045E0
2.263402042E0,1.990335490E0,-1.243459233E0,3.294377432E0,4.044817535E0
2.273408042E0,2.616365295E0,-1.017775420E0,2.416565351E0,3.704189825E0
2.283415042E0,2.888773039E0,-9.486826730E-1,1.398845773E0,3.346905732E0
2.293422042E0,2.818705854E0,-1.313194004E0,9.612448311E-1,3.254776921E0
2.303429042E0,2.462653105E0,-2.188720407E0,1.099540837E0,3.473348153E0
2.313435042E0,2.143056577E0,-3.251703867E0,1.687385985E0,4.244236208E0
2.323442042E0,2.012661914E0,-3.976199614E0,2.149337656E0,4.947789780E0
2.333449042E0,2.335834014E0,-4.041112187E0,2.472020345E0,5.281817190E0
2.343455042E0,3.399093463E0,-3.445489950E0,2.710325080E0,5.547170396E0
2.353462042E0,5.133225013E0,-3.008700894E0,2.815273538E0,6.582404211E0
2.363469042E0,5.773164175E0,-3.826472594E0,2.118117617E0,7.242771524E0
2.373476042E0,5.152744773E0,-4.114721030E0,1.617659985E0,6.789589949E0
2.383482042E0,3.831162938E0,-4.015095878E0,1.309155039E0,5.701990116E0
2.393489042E0,2.703674750E0,-4.053486357E0,9.841939831E-1,4.970839627E0
2.403496042E0,2.092837765E0,-4.383633601E0,1.414157584E0,5.059254405E0
2.413502042E0,2.068323898E0,-4.874999691E0,2.692906810E0,5.940987529E0
2.423509042E0,2.724827052E0,-5.244620318E0,5.410106462E0,8.012488794E0
2.433516042E0,3.433300259E0,-5.425547204E0,6.818238782E0,9.365494820E0
2.443522042E0,4.156151769E0,-5.064759380E0,6.159780319E0,8.992679172E0
2.453529042E0,3.918589922E0,-4.133549357E0,4.599699914E0,7.321121264E0
2.463536042E0,3.283755965E0,-3.314679549E0,2.648537260E0,5.365156416E0
2.473543042E0,2.782015745E0,-2.584065568E0,1.588290882E0,4.115783570E0
2.483549042E0,2.732498599E0,-1.843827655E0,1.712623737E0,3.714744820E0
2.493556042E0,2.972703388E0,-1.218976941E0,1.980011061E0,3.774031534E0
2.503563042E0,3.555666695E0,-7.450109956E-1,1.478274350E0,3.922129789E0
2.513569042E0,5.970491915E0,9.187498990E-1,-2.763423353E0,6.642844550E0
2.523576042E0,6.680314075E0,3.170415291E0,-4.022596101E0,8.417803077E0
2.533583042E0,6.873725350E0,4.670333694E0,-4.485364044E-1,8.322337527E0
2.543590042E0,1.003294732E1,7.113646549E0,-8.154176116E-1,1.232594438E1
2.553596042E0,1.074364597E1,1.000367499E1,-3.086476171E0,1.500085921E1
2.563603042E0,1.084623771E1,1.165442232E1,-6.634190653E0,1.724757715E1
2.573610042E0,8.011005287E0,1.103754574E1,-1.138033759E1,1.776276176E1
2.583616042E0,4.159605135E0,9.776508318E0,-9.512463262E0,1.426076390E1
2.593623042E0,8.591542000E-1,6.678151774E0,-6.930193081E0,9.662475522E0
2.603630042E0,-1.244979801E0,5.082962347E0,-8.334438173E0,9.841206257E0
2.613636042E0,-2.433724591E0,3.887424263E0,-7.847929950E0,9.089834283E0
2.623643042E0,-3.323054516E0,3.200148382E0,-7.292774831E0,8.629496261E0
2.633650042E0,-2.953275429E0,3.213803385E0,-6.667649006E0,7.969185104E0
2.643657042E0,-1.637812706E0,4.762051950E0,-7.675941119E0,9.180394397E0
2.653663042E0,-4.617668992E-1,6.906396668E0,-8.306766225E0,1.081267352E1
2.663670042E0,9.599327159E-1,8.436910627E0,-7.531613710E0,1.135024832E1
2.673677042E0,1.800643044E0,8.912410882E0,-6.173231839E0,1.099009438E1
2.683683042E0,1.854030461E0,7.978884777E0,-4.245541663E0,9.226302360E0
2.693690042E0,-7.321573538E-1,5.905022981E0,-2.680627365E0,6.526186778E0
2.703697042E0,-4.285095153E0,3.343243783E0,-3.322448745E0,6.370085174E0
2.713704042E0,-7.156749299E0,1.165952343E0,-4.466201549E0,8.516188212E0
2.723710042E0,-7.757135555E0,-8.135079110E-1,-4.416557518E0,8.963310072E0
2.733717042E0,-4.840136252E0,-1.624268800E-1,-3.316438977E0,5.869588479E0
2.743724042E0,-2.158869202E0,1.463546383E0,-2.735874489E0,3.779906542E0
2.753730042E0,7.987969011E-1,2.670330418E0,-3.714965315E0,4.644320006E0
2.763737042E0,3.286440421E0,4.567068942E0,-3.762018444E0,6.768426120E0
2.773744042E0,5.767185981E0,5.090325746E0,-3.660624216E0,8.518921293E0
2.783750042E0,7.084212835E0,5.071029934E0,-2.266561466E0,9.002150685E0
2.793757042E0,7.880463858E0,3.373954529E0,3.406567374E0,9.224423074E0
2.803764042E0,7.286611866E0,-2.363182027E0,7.425368632E0,1.066843199E1
2.813771042E0,3.967795996E0,-5.644038942E0,3.967385522E0,7.958563220E0
2.823777042E0,3.388638057E0,-5.325350486E0,5.061508328E0,8.090802941E0
2.833784042E0,4.563355960E0,-5.914693106E0,4.383531275E0,8.661590997E0
2.843791042E0,4.205579453E0,-5.362553980E0,-5.014993143E-1,6.833402175E0
2.853797042E0,4.089119874E0,-3.780943542E0,-3.743888567E0,6.710673365E0
2.863804042E0,4.188728362E0,-1.403277962E0,-4.106024759E0,6.031092243E0
2.873811042E0,4.916074042E0,7.792818189E-2,-3.128022977E0,5.827382305E0
2.883817042E0,5.331368440E0,1.769747525E-1,-2.487775083E0,5.885901322E0
2.893824042E0,4.452112682E0,-6.614703637E-1,-1.185222427E0,4.654417534E0
2.903831042E0,3.972094284E0,-1.425598246E0,1.702925545E-1,4.223607808E0
2.913838042E0,4.017342378E0,-1.584982235E0,2.584961654E0,5.033213210E0
2.923844042E0,3.705442539E0,-1.357358024E0,3.908351448E0,5.554091848E0
2.933851042E0,3.898366157E0,-1.508731327E0,6.213660657E0,7.488865580E0
2.943858042E0,4.515303542E0,-2.402420060E0,8.281915559E0,9.733946452E0
2.953864042E0,5.626712472E0,-2.409064251E0,9.136028289E0,1.099684031E1
2.963871042E0,5.747232943E0,-2.708857429E0,8.236805459E0,1.040257464E1
2.973878042E0,4.692956572E0,-4.093885939E0,7.256106942E0,9.562156212E0
2.983884042E0,1.900281937E0,-6.067602473E0,3.798340763E0,7.406366434E0
2.993891042E0,-3.298034865E0,-7.604089363E0,-2.970234693E0,8.804629643E0
3.003898042E0,-3.049183214E0,-6.987736115E0,-2.364704642E-1,7.627705590E0
3.013905042E0,2.293137646E-1,-6.126765186E0,3.512504888E0,7.065941341E0
3.023911042E0,-3.403040333E0,-4.434274874E0,-1.109762354E0,5.698688415E0
3.033918042E0,-8.343320094E0,-2.444087318E0,-6.266036507E0,1.071670502E1
3.043925042E0,-8.872214783E0,-2.884769450E0,-3.140183432E0,9.843720939E0
3.053931042E0,-9.327490103E0,-3.674616603E0,-1.006763066E0,1.007563649E1
3.063938042E0,-9.109544495E0,-3.462457985E0,2.569137919E-1,9.748765096E0
3.073945042E0,-7.689732361E0,-1.247095616E0,-8.030978206E-1,7.831487558E0
3.083951042E0,-4.751612331E0,1.386474819E0,-2.102225616E0,5.377683954E0
3.093958042E0,-3.314855551E0,3.864813372E0,-3.456151470E0,6.153863234E0
3.103965042E0,-7.820025283E-1,5.123621546E0,-3.176443185E0,6.078882875E0
3.113972042E0,-2.701315398E0,4.176265022E0,-3.941718584E0,6.346293391E0
3.123978042E0,-1.402434092E1,3.401772072E0,1.227453357E-1,1.443153692E1
3.133985042E0,-1.387393182E1,4.285361202E0,2.455417761E0,1.472682523E1
3.143992042E0,-3.926611717E0,4.216026673E0,-1.023762676E0,5.851602387E0
3.153998042E0,3.416122894E0,7.083788912E0,-1.077788098E0,7.937983885E0
3.164005042E0,6.726652089E0,8.999781733E0,-3.161907007E0,1.167225666E1
3.174012042E0,4.180399003E0,9.271260354E0,-3.574080747E0,1.077989135E1
3.184018042E0,-8.852093929E-1,9.234917570E0,-3.379159720E0,9.873500828E0
3.194025042E0,2.462888163E-1,5.526518678E0,-1.822278911E0,5.824411327E0
3.204032042E0,2.438102986E0,9.750530308E-1,-1.221531297E0,2.896068592E0
3.214039042E0,1.097908879E0,1.953353898E0,-3.607761294E0,4.246991513E0
3.224045042E0,9.074562943E-1,2.889950083E0,-3.390692768E0,4.546656558E0
3.234052042E0,2.628530427E0,3.027430403E0,-1.373713270E0,4.238112221E0
3.244060042E0,2.838960024E0,2.951162245E0,-2.919467267E-1,4.105397119E0
3.254066042E0,1.125460374E-1,6.244832164E-1,-2.099033475E-1,6.683601674E-1
3.264073042E0,-1.978318292E0,-1.900672531E0,-1.609153748E0,3.180514914E0
3.274080042E0,-3.458074327E0,-3.165608295E0,-2.453655410E0,5.291481720E0
3.284086042E0,-4.219881157E0,-3.672712750E0,-1.994525020E0,5.939220991E0
3.294093042E0,-3.611805228E0,-3.770874344E0,3.273049128E-1,5.231802637E0
3.304100042E0,-2.967291790E0,-3.308014893E0,1.717259409E0,4.764111982E0
3.314107042E0,-1.934780509E0,-2.351966775E0,1.161673423E0,3.259541144E0
3.324113042E0,-9.820451313E-1,-1.551289117E0,1.445548654E-2,1.836060872E0
3.334120042E0,1.583209652E-1,-8.952031615E-1,-2.125918242E-1,9.336217179E-1
3.344127042E0,6.705955285E-1,-9.763356176E-1,-2.038807154E-1,1.201872267E0
3.354133042E0,6.647173226E-2,-1.241191975E0,-1.329144623E0,1.819780602E0
3.364140042E0,-7.078346908E-1,-1.689550039E0,-2.686659937E0,3.251730447E0
3.374147042E0,-1.531423202E0,-2.900857480E0,-3.052378718E0,4.480764106E0
3.384153042E0,-1.789990586E0,-3.002559563E0,-1.801889670E0,3.932713645E0
3.394160042E0,1.977671590E0,-3.274657405E0,-9.366317077E-1,3.938507965E0
3.404167042E0,4.473067349E0,-2.522224831E0,-3.132468030E0,6.015172946E0
3.414174042E0,3.582410690E0,-1.338846616E0,-5.418709470E0,6.632389384E0
3.424180042E0,1.132291092E0,-3.745857909E-1,-4.004025929E0,4.177872817E0
3.434187042E0,-2.856273630E0,2.275775801E0,2.800275722E0,4.602064609E0
3.444194042E0,6.497279853E-1,-1.821265004E0,-3.181448694E0,3.723005300E0
3.454200042E0,1.907478690E-2,-6.615685970E0,-8.415719733E0,1.070476545E1
3.464207042E0,3.596705378E0,-6.912419885E0,-5.167271011E0,9.349787588E0
3.474214042E0,8.512442620E0,-3.739152907E0,-4.069398969E-2,9.297558810E0
3.484220042E0,1.089350309E1,-1.574970340E0,2.314905660E0,1.124756549E1
3.494227042E0,1.211782117E1,-1.300346501E0,2.217846558E0,1.238754755E1
3.504234042E0,1.307967178E1,-4.776303953E-1,1.014607398E0,1.312765679E1
3.514241042E0,1.071766095E1,-1.043388855E-1,1.270794089E0,1.079324142E1
3.524247042E0,6.306359491E0,-3.455201590E-1,2.383761010E0,6.750694095E0
3.534254042E0,5.035185333E0,-4.697050792E-1,1.964362451E0,5.425166729E0
3.544261042E0,4.713596658E0,-3.879358613E-1,1.104084123E0,4.856695321E0
3.554267042E0,3.886337850E0,-2.846874815E-1,6.910297930E-1,3.957548613E0
3.564274042E0,2.996630194E0,-7.292308223E-1,4.134914097E-1,3.111678849E0
3.574281042E0,2.348092117E0,-1.687998773E0,-3.226259708E-2,2.892043797E0
3.584288042E0,1.395218160E0,-3.073527512E0,-4.004547501E-1,3.399054146E0
3.594294042E0,7.220972192E-1,-3.792434490E0,-5.628190649E-1,3.901377841E0
3.604301042E0,2.993616539E-1,-3.608851215E0,-1.588499189E-1,3.624728650E0
3.614308042E0,7.610513699E-1,-2.384371752E0,9.408368059E-1,2.673873919E0
3.624314042E0,1.583245320E0,-5.023623633E-1,2.256448706E0,2.801891228E0
3.634321042E0,2.804585997E0,1.335097674E0,3.840113271E0,4.939094892E0
3.644328042E0,4.067585163E0,3.333598216E0,4.853179636E0,7.156219582E0
3.654335042E0,3.813328346E0,4.723439861E0,5.010290228E0,7.871173061E0
3.664341042E0,2.516245176E0,4.766185346E0,3.580630213E0,6.470620160E0
3.674348042E0,-3.685424012E-1,2.872468078E0,1.477439952E0,3.251111375E0
3.684355042E0,-3.875098917E0,4.843947467E-1,-1.452596303E0,4.166661242E0
3.694361042E0,-6.702064548E0,-6.164909497E-1,-3.358738027E0,7.521891479E0
3.704368042E0,-9.055610948E0,-9.942430079E-1,-4.315661766E0,1.008055283E1
3.714375042E0,-9.373618788E0,-1.897377625E-1,-4.704551600E0,1.048968710E1
3.724381042E0,-6.952024831E0,2.460263641E0,-4.284293500E0,8.528699621E0
3.734388042E0,-3.868720774E0,4.903099363E0,-4.097238733E0,7.469588276E0
3.744395042E0,-8.785634476E-1,6.551118675E0,-4.777925971E0,8.155832650E0
3.754402042E0,2.236828959E-1,7.540645319E0,-6.131803147E0,9.721644701E0
3.764408042E0,-8.978458107E-2,7.764094911E0,-7.720476437E0,1.094965696E1
3.774415042E0,-1.929804529E0,6.246699765E0,-9.366792748E0,1.142288098E1
3.784422042E0,-5.605771839E0,2.206490973E0,-1.126476153E1,1.277451105E1
3.794428042E0,-9.150358061E0,-3.699619297E0,-1.190830842E1,1.546686927E1
3.804435042E0,-9.865588310E0,-7.482853194E0,-9.082117546E0,1.535603411E1
3.814442042E0,-5.571932833E0,-6.471485445E0,-3.265209181E0,9.142655542E0
3.824449042E0,-3.354342967E-1,-2.761072773E0,3.328010909E0,4.337245166E0
3.834455042E0,3.066664635E0,9.449710067E-1,7.316568906E0,7.989341821E0
3.844462042E0,3.545090252E0,3.191899130E0,8.171289747E0,9.461810666E0
3.854469042E0,3.723718012E0,4.606772121E0,5.238583653E0,7.907666147E0
3.864475042E0,3.954766645E0,4.545473128E0,7.046046889E-1,6.066133278E0
3.874482042E0,3.764343882E0,3.503491405E0,-2.705867456E0,5.810891117E0
3.884489042E0,5.021441453E0,2.036227947E0,-3.985587319E0,6.726515055E0
3.894496042E0,3.054158610E0,1.086932924E0,-3.824518747E0,5.013606651E0
3.904502042E0,6.495128077E-1,-1.637503388E0,5.861477011E-1,1.856570322E0
3.914509042E0,-7.482646787E-1,-5.426487436E0,6.455433669E0,8.466362252E0
3.924516042E0,-6.041308129E-1,-5.320793166E0,1.010434533E1,1.143562891E1
3.934522042E0,-1.046079744E0,-4.196370965E0,1.205871284E1,1.281079106E1
3.944529042E0,3.905527242E0,1.148248728E0,8.176042364E0,9.133415950E0
3.954536042E0,5.508495805E0,4.186726275E0,1.881926942E0,7.170345316E0
3.964543042E0,5.011371378E0,2.862902910E0,-1.833507027E0,6.055724909E0
3.974549042E0,3.827907794E0,2.577210000E0,-3.709519511E0,5.920762152E0
3.984556042E0,2.705705488E0,2.461292458E0,-3.013940876E0,4.739477013E0
3.994563042E0,1.275812754E0,2.099061249E0,-5.276065475E-1,2.512394272E0
4.004569042E0,2.577008271E-1,8.315636013E-1,1.619202188E0,1.838402422E0
4.014576042E0,-1.793329346E0,-2.362773453E0,3.508490775E0,4.594370038E0
4.024583042E0,3.744849265E-1,-5.591887041E0,3.445280035E0,6.578707635E0
4.034589042E0,2.508756062E0,-3.255763589E0,3.696639556E0,5.528019314E0
4.044596042E0,2.502553335E0,1.214773670E-1,4.338829896E0,5.010286899E0
4.054603042E0,2.060060028E0,1.024856909E0,3.769177775E0,4.415980084E0
4.064610042E0,1.560961581E0,-2.330097896E-1,3.221819918E0,3.587620130E0
4.074616042E0,1.489976383E0,-2.377938060E0,3.208979432E0,4.262882597E0
4.084623042E0,1.119186897E0,-4.448463143E0,3.118104930E0,5.546528824E0
4.094630042E0,2.858528316E-1,-5.372243401E0,2.542431346E0,5.950350255E0
4.104636042E0,-1.044925504E0,-5.544564940E0,2.193890516E0,6.053695175E0
4.114643042E0,-1.896824479E0,-5.223421823E0,2.819732625E0,6.231610604E0
4.124650042E0,-1.088169172E0,-4.272753143E0,2.357071686E0,4.999631837E0
4.134657042E0,3.306600451E-1,-3.504534549E0,3.788533813E-1,3.540427707E0
4.144663042E0,1.893030220E-1,-3.247167013E0,-1.171627650E0,3.457259116E0
4.154670042E0,-6.552845943E-1,-3.360379048E0,-1.560203782E0,3.762416921E0
4.164677042E0,-1.384432386E0,-4.246898510E0,-1.377604008E0,4.674461764E0
4.174683042E0,-9.044210047E-1,-4.330975623E0,-1.558416288E0,4.690840919E0
4.184690042E0,3.041265500E-1,-2.738698694E0,-2.147089401E0,3.493273020E0
4.194697042E0,5.470625728E-1,-1.130800344E0,-2.382488948E0,2.693369723E0
4.204704042E0,1.479988754E-1,-5.842437381E-1,-2.078568220E0,2.164183508E0
4.214710042E0,-6.794973296E-1,-8.632625999E-1,-1.761752043E0,2.076224746E0
4.224717042E0,-1.659103003E0,-4.546199206E-1,-1.718254606E0,2.431398967E0
4.234724042E0,-2.186630613E0,9.343103631E-1,-1.285444872E0,2.703083020E0
4.244729167E0,-1.979133394E0,3.197251672E0,-1.209032216E0,3.949828622E0
4.254736167E0,-2.190375754E0,4.692564516E0,-1.680777462E0,5.444531252E0
4.264743167E0,-3.731129943E0,4.718843072E0,-2.390817722E0,6.473393235E0
4.274750167E0,-5.053000630E0,4.325654950E0,-2.248528068E0,7.021394774E0
4.284756167E0,-5.339173304E0,3.953785775E0,-1.191167876E0,6.749672172E0
4.294763167E0,-5.430665272E0,3.638337554E0,-5.100982296E-1,6.556662692E0
4.304770167E0,-5.944711542E0,3.270668142E0,-3.724559061E-1,6.795262232E0
4.314776167E0,-6.327670838E0,2.736032072E0,-1.848912613E-1,6.896337760E0
4.324783167E0,-6.285633450E0,2.107149410E0,-6.165655017E-2,6.629711007E0
4.334790167E0,-5.764457670E0,1.370160502E0,2.968876239E-1,5.932491407E0
4.344797167E0,-5.284991834E0,2.424208832E-1,4.989487588E-1,5.314024505E0
4.354803167E0,-5.100679995E0,-1.142314827E0,1.032814751E0,5.328088390E0
4.364810167E0,-4.598816984E0,-9.658091676E-1,1.026807321E0,4.810014374E0
4.374817167E0,-3.344996193E0,1.291438561E0,1.379007339E-1,3.588290638E0
4.384823167E0,-2.100369564E0,3.059974251E0,-1.091039131E0,3.868508900E0
4.394830167E0,-1.293898192E0,3.666532243E0,-1.969531535E0,4.358518749E0
4.404837167E0,-8.552599543E-1,3.046950747E0,-2.520712156E0,4.045907589E0
4.414843167E0,-2.571506041E-1,1.305894194E0,-2.925556118E0,3.214088468E0
4.424850167E0,-3.439092511E-1,-1.057923426E0,-2.895916582E0,3.102226362E0
4.434857167E0,9.598958784E-1,-2.632495132E0,-3.161600028E0,4.224588199E0
4.444864167E0,3.828407146E0,-3.410843735E0,-3.297427632E0,6.096194325E0
4.454870167E0,5.410135698E0,-3.813347642E0,-1.683202009E0,6.829667452E0
4.464877167E0,6.390095712E0,-3.593876495E0,-1.539808694E-1,7.333006313E0
4.474884167E0,8.221305660E0,-2.974973862E0,-5.424102357E-1,8.759825632E0
4.484890167E0,1.094671743E1,-1.415622312E0,-2.839870143E0,1.139734493E1
4.494897167E0,1.172952395E1,1.029027509E0,-6.266935809E0,1.333848246E1
4.504904167E0,6.395144198E0,1.896393246E0,-8.954747647E0,1.116609520E1
4.514911167E0,2.678911791E0,6.656411827E-1,-8.857203226E0,9.277375467E0
4.524917167E0,1.355296880E0,-1.985327350E0,-7.238271765E0,7.626987115E0
4.534924167E0,7.090380478E-1,-3.931860470E0,-3.756085859E0,5.483652313E0
4.544931167E0,2.250786847E0,-4.068938501E0,1.849857304E-1,4.653656807E0
4.554937167E0,3.525868115E0,-3.314083718E0,1.473623182E0,5.058306252E0
4.564944167E0,4.870608432E0,-2.715285858E0,1.307299572E0,5.727533148E0
4.574951167E0,5.717333790E0,-2.209999595E0,1.094612511E0,6.226570519E0
4.584958167E0,5.030267825E0,-1.611684715E0,8.455833972E-1,5.349404947E0
4.594964167E0,2.354568493E0,-1.249785335E0,6.905247398E-1,2.753684911E0
4.604971167E0,-6.930926907E-1,-1.245648138E0,1.432877591E0,2.021176626E0
4.614978167E0,-1.984575398E0,-1.390002444E0,1.964952288E0,3.119564681E0
4.624984167E0,-2.113229930E0,-1.455271989E0,2.496075790E0,3.579658035E0
4.634991167E0,-1.901208136E0,-1.360583055E0,3.222855459E0,3.981529347E0
4.644998167E0,-1.521795176E0,-8.805193412E-1,3.492980450E0,3.910509851E0
4.655004167E0,-1.072659432E0,-6.819496518E-1,3.541191913E0,3.762405314E0
4.665011167E0,-7.546375591E-1,-6.092719772E-1,3.887678032E0,4.006835493E0
4.675018167E0,-1.786605048E-1,-1.200923662E0,3.788288230E0,3.978098155E0
4.685025167E0,2.190834761E-1,-2.228054042E0,3.216587244E0,3.919012106E0
4.695031167E0,1.493261933E-1,-2.903766469E0,2.325521865E0,3.723198889E0
4.705038167E0,8.183470666E-2,-2.898166299E0,1.755677370E0,3.389464241E0
4.715045167E0,5.434694588E-2,-2.423719420E0,1.412099072E0,2.805600329E0
4.725051167E0,-5.158963287E-1,-1.295172008E0,1.394904165E0,1.972150395E0
4.735058167E0,-4.775497037E-1,-6.171151400E-1,6.877179301E-1,1.040115747E0
4.745065167E0,-7.764763248E-1,-1.990982777E-1,-9.682867060E-1,1.257034109E0
4.755071167E0,-2.718234317E0,-6.987744302E-2,-2.059381751E0,3.410972567E0
4.765078167E0,-5.407208582E0,-4.652997869E-1,-2.269116699E0,5.882456896E0
4.775085167E0,-6.932924901E0,-4.603790626E-1,-1.743017564E0,7.163484263E0
4.785092167E0,-7.212258087E0,-5.205343401E-1,-9.063383798E-1,7.287597133E0
4.795098167E0,-6.767824674E0,-4.422439232E-1,-9.083357155E-2,6.782866742E0
4.805105167E0,-5.618525201E0,1.123188731E-1,5.415210935E-1,5.645678530E0
4.815112167E0,-4.311798803E0,9.032448372E-1,8.215460052E-1,4.481338861E0
4.825118167E0,-2.780881970E0,1.562546469E0,1.003676175E0,3.343982934E0
4.835125167E0,-3.822488594E-1,2.404717431E0,5.506690624E-1,2.496400715E0
4.845132167E0,1.719591279E0,3.024735129E0,-2.295594938E-1,3.486934804E0
4.855138167E0,2.355319276E0,2.748836012E0,-1.092350370E0,3.781118570E0
4.865145167E0,2.190278106E0,2.109598517E0,-1.809909126E0,3.538855059E0
4.875152167E0,1.687989417E0,1.454896013E0,-2.153578057E0,3.099020672E0
4.885159167E0,1.204321187E0,1.134923508E0,-2.026401116E0,2.616245855E0
4.895165167E0,1.254043570E0,1.112699703E0,-1.737195491E0,2.414243998E0
4.905172167E0,1.747507641E0,1.053077692E0,-1.557939740E0,2.567086249E0
4.915179167E0,2.522471876E0,4.149488282E-1,-1.539825650E0,2.984310628E0
4.925185167E0,3.266335355E0,-4.833358160E-1,-1.488988642E0,3.622105374E0
4.935192167E0,3.984049501E0,-1.322196962E0,-1.183167130E0,4.361277301E0
4.945199167E0,4.309529498E0,-1.737301033E0,-1.274382379E0,4.818123060E0
4.955206167E0,4.047135696E0,-1.773484189E0,-1.585440803E0,4.694483576E0
4.965212167E0,3.676335100E0,-1.992541937E0,-1.879207987E0,4.584439529E0
4.975219167E0,3.446191615E0,-2.387958141E0,-2.371346202E0,4.816831276E0
4.985226167E0,2.616084044E0,-2.500584870E0,-3.296095636E0,4.895004276E0
4.995232167E0,1.694234244E0,-3.234777347E0,-4.264831335E0,5.614534752E0
5.005239167E0,1.079595399E0,-4.330713961E0,-5.056159880E0,6.744283681E0
5.015246167E0,9.895061785E-1,-5.458541288E0,-5.580282072E0,7.868566799E0
5.025252167E0,9.722007591E-1,-5.753060278E0,-5.741030216E0,8.185493560E0
5.035259167E0,8.966950786E-1,-5.678936294E0,-5.331537425E0,7.840897322E0
5.045266167E0,-1.993118765E0,-7.822347797E0,-3.923162445E0,8.975124012E0
5.055272167E0,-5.724645149E0,-7.007949355E0,5.138980427E-1,9.063498631E0
5.065279167E0,-4.738358447E0,-3.078353511E0,-1.206924952E0,5.777972737E0
5.075286167E0,-6.211508882E-1,-9.731532705E-1,2.549397719E-1,1.182307067E0
5.085293167E0,2.067929211E0,-2.147109282E0,2.969444150E-1,2.995761252E0
5.095299167E0,2.747107283E0,-3.281429650E0,-1.724671340E0,4.613986368E0
5.105306167E0,4.456569430E0,1.762938443E-1,3.519988739E-1,4.473923760E0
5.115313167E0,4.482921077E0,2.683529338E0,2.021586519E0,5.602206989E0
5.125319167E0,1.330019367E-1,-8.498562500E-1,1.413331665E1,1.415946979E1
5.135326167E0,-2.881181014E0,-3.416092488E0,1.405736833E1,1.475061003E1
5.145333167E0,-4.375722903E-1,-3.939599260E0,3.098591602E0,5.031220702E0
5.155339167E0,-1.176400732E0,5.682256928E-1,-3.731246302E0,3.953352765E0
5.165346167E0,-1.148265685E0,5.913569856E0,-8.020649099E-1,6.077181143E0
5.175353167E0,1.204641030E0,6.896324254E0,-2.103923794E0,7.310057699E0
5.185360167E0,5.139761615E0,7.381415112E0,-1.190969070E1,1.492458278E1
5.195366167E0,5.603156379E0,9.246476930E0,-6.628068033E0,1.268163960E1
5.205373167E0,4.350478719E0,8.961776585E0,-2.148081966E0,1.019089598E1
5.215380167E0,1.593919412E0,7.231092553E0,3.716385604E0,8.284974385E0
5.225386167E0,-1.343332892E0,6.177451774E0,6.424442257E0,9.013263116E0
5.235393167E0,-1.998968319E0,4.412359217E0,3.139382071E0,5.772391878E0
5.245400292E0,-4.284470086E0,3.310080714E0,3.032523035E0,6.205603453E0
5.255407292E0,-6.100683095E0,2.161180022E0,2.899071448E0,7.091801504E0
5.265413292E0,-6.368403127E0,1.878432646E0,1.493901034E0,6.805645296E0
5.275420292E0,-6.205421346E0,2.796601040E0,2.466551444E-1,6.810952225E0
5.285427292E0,-5.961323481E0,4.235451123E0,-6.651552790E-1,7.342945963E0
5.295433292E0,-6.058807676E0,5.711394773E0,-1.051031166E0,8.392487547E0
5.305440292E0,-6.011769165E0,6.932467064E0,-1.455921614E0,9.290865182E0
5.315447292E0,-5.224307091E0,7.600554137E0,-2.285773662E0,9.501924489E0
5.325453292E0,-4.151339511E0,6.748154055E0,-2.056452881E0,8.185365071E0
5.335460292E0,-3.528596426E0,4.855473499E0,-7.746549171E-1,6.052000155E0
5.345467292E0,-3.375165487E0,3.127021934E0,1.468020088E0,4.829605700E0
5.355474292E0,-4.096489120E0,2.328275611E0,6.678552309E0,8.173441831E0
5.365480292E0,-3.103317906E0,1.204414450E0,4.757456623E0,5.806426587E0
5.375487292E0,-2.443201173E0,1.732623553E-1,3.575982261E0,4.334385879E0
5.385494292E0,-2.232954594E0,-3.076918897E-1,1.872922230E0,2.930631024E0
5.395500292E0,-2.050325584E0,5.181305498E-2,2.426910245E-1,2.065288969E0
5.405507292E0,-1.970294158E0,1.071180964E0,-1.608032252E0,2.759575230E0
5.415514292E0,-1.865483987E0,1.703330757E0,-3.088774711E0,3.990224980E0
5.425521292E0,-1.663163894E0,1.920344026E0,-3.983194054E0,4.724369819E0
5.435527292E0,-3.682921404E-1,2.129353042E0,-4.483899901E0,4.977463390E0
5.445534292E0,5.076038074E-1,2.263934020E0,-5.281478242E0,5.768628199E0
5.455541292E0,5.015864378E-1,2.084414559E0,-5.758122797E0,6.144294195E0
5.465547292E0,1.517854738E0,1.527225485E0,-4.265320455E0,4.777997412E0
5.475554292E0,2.108079118E0,4.337429488E-1,-1.315614166E0,2.522493042E0
5.485561292E0,1.832632576E0,-8.446051580E-1,3.927457809E-1,2.055760025E0
5.495567292E0,2.313705812E0,-1.666540953E0,3.780336016E-1,2.876369715E0
5.505574292E0,2.764033803E0,-1.995111496E0,-4.783741611E-1,3.442265908E0
5.515581292E0,2.576980205E0,-1.449635565E0,-1.590974169E0,3.357598703E0
5.525588292E0,2.634709765E0,-3.987926790E-1,-1.786037868E0,3.207906235E0
5.535594292E0,3.071419591E0,1.380229408E0,-2.016605276E0,3.924964759E0
5.545601292E0,3.914762920E0,2.621298299E0,-1.652403263E0,4.992695668E0
5.555608292E0,5.065455199E0,2.484583672E0,-1.005398326E0,5.730865396E0
5.565614292E0,5.953177140E0,1.798569621E0,7.499872684E-2,6.219388680E0
5.575621292E0,6.428559866E0,7.106062710E-1,1.893418475E0,6.739167363E0
5.585628292E0,6.453093029E0,-5.980143330E-1,2.842929699E0,7.076883499E0
5.595635292E0,4.982926428E0,-1.792515414E0,2.926357187E0,6.050308561E0
5.605641292E0,3.704633285E0,-2.098673871E0,2.101416800E0,4.748125142E0
5.615648292E0,2.574346034E0,-2.138209820E0,6.929400784E-1,3.417508550E0
5.625655292E0,1.440475609E0,-1.992919667E0,-5.138708532E-1,2.512123013E0
5.635661292E0,1.210069000E0,-1.467448230E0,-1.027403737E0,2.161765421E0
5.645668292E0,2.082046144E0,-7.989179385E-1,-1.069971467E0,2.473464162E0
5.655675292E0,3.868651777E0,8.033665001E-2,-2.987266463E-1,3.880999634E0
5.665681292E0,4.735627213E0,2.246950489E-1,1.502160226E0,4.973242233E0
5.675688292E0,3.649894575E0,-3.197175658E-1,3.208210523E0,4.869965554E0
5.685695292E0,2.096768264E0,-1.065894204E0,3.825499910E0,4.490770220E0
5.695702292E0,8.741634178E-1,-1.786674630E0,3.488427808E0,4.015656421E0
5.705708292E0,-4.684835958E-1,-2.090805273E0,2.634737831E0,3.395995732E0
5.715715292E0,-7.778305399E-1,-1.812136331E0,1.881597160E0,2.725668047E0
5.725722292E0,-1.391280645E-1,-1.322581124E0,1.594283109E0,2.076130072E0
5.735728292E0,1.841633195E-1,-1.571906399E0,1.848993670E0,2.433841294E0
5.745735292E0,1.527076381E-1,-2.181206151E0,2.276932672E0,3.156802542E0
5.755742292E0,6.642612398E-2,-2.685491663E0,2.954983108E0,3.993520136E0
5.765749292E0,3.209788102E-1,-3.144518557E0,3.347160832E0,4.603749558E0
5.775755292E0,8.240393311E-1,-3.155269833E0,3.778590623E0,4.991243896E0
5.785762292E0,1.352018931E0,-2.831546339E0,4.550734745E0,5.527639332E0
5.795769292E0,1.820316585E0,-2.498019404E0,5.461949630E0,6.275870232E0
5.805775292E0,1.979645610E0,-2.197464918E0,6.459540169E0,7.104470987E0
5.815782292E0,1.895559726E0,-1.761088969E0,7.066727321E0,7.525504372E0
5.825789292E0,2.055400967E0,-7.656274009E-1,7.111087223E0,7.441667820E0
5.835796292E0,2.482526622E0,8.451729226E-1,6.608785086E0,7.110084107E0
5.845802292E0,2.884043811E0,2.507727537E0,5.801029665E0,6.946823107E0
5.855809292E0,3.025554616E0,3.762830622E0,5.067322800E0,6.999331067E0
5.865816292E0,2.702448004E0,4.315401272E0,4.307689964E0,6.669490699E0
5.875822292E0,2.136905891E0,4.408776628E0,3.555300660E0,6.053415641E0
5.885829292E0,1.381243899E0,4.156641181E0,2.829406258E0,5.214502890E0
5.895836292E0,7.405375832E-1,3.617056612E0,2.186204204E0,4.290802171E0
5.905842292E0,2.642023462E-1,3.045010349E0,1.472621847E0,3.392713664E0
5.915849292E0,-3.246970546E-1,2.252099547E0,7.784035671E-1,2.404847742E0
5.925856292E0,-1.203330084E0,1.408348083E0,1.894274215E-1,1.862076895E0
5.935863292E0,-1.904409487E0,6.747420815E-1,-5.113765772E-1,2.084120527E0
5.945869292E0,-2.364781240E0,2.589954007E-1,-1.048325952E0,2.599664639E0
5.955876292E0,-2.942570347E0,1.533265659E-1,-1.172987128E0,3.171455200E0
5.965883292E0,-3.946351333E0,-4.535740730E-1,-1.114915652E0,4.125827819E0
5.975889292E0,-4.443289234E0,-1.256371347E0,-8.941937859E-1,4.703282971E0
5.985896292E0,-4.448578041E0,-2.080493416E0,-7.844029565E-1,4.973287387E0
5.995903292E0,-4.414699273E0,-2.713862354E0,-1.250912386E0,5.330984932E0
6.005910292E0,-4.353320466E0,-2.953738236E0,-1.577224003E0,5.492140220E0
6.015916292E0,-4.082763950E0,-3.323773431E0,-1.437604042E0,5.457392846E0
6.025923292E0,-3.908153227E0,-4.509051699E0,-1.157048787E0,6.078155211E0
6.035930292E0,-3.798196921E0,-5.030118721E0,3.727088347E-2,6.303156615E0
6.045936292E0,-4.054288595E0,-4.330018434E0,9.641204917E-1,6.009645911E0
6.055943292E0,-3.743887398E0,-3.775155383E0,5.638810654E-1,5.346630048E0
6.065950292E0,-3.245154986E0,-3.938889701E0,-8.534372310E-1,5.174382868E0
6.075956292E0,-2.124597502E0,-3.089898254E0,-2.402474877E0,4.453456107E0
6.085963292E0,-1.928992351E0,-2.312289031E0,-3.913795205E0,4.938166154E0
6.095970292E0,-1.585538013E0,-2.070471873E0,-4.169805018E0,4.918135668E0
6.105977292E0,-5.315113181E-1,-2.157952651E0,-2.653844778E0,3.461525102E0
6.115983292E0,1.812631005E-1,-2.975155418E0,-4.998201402E-1,3.022288246E0
6.125990292E0,-3.121910298E-1,-3.858598659E0,6.507559258E-1,3.925522911E0
6.135997292E0,-8.729267317E-1,-4.489360616E0,7.015441100E-1,4.626934617E0
6.146003292E0,-7.688392764E-1,-4.779840349E0,8.587352470E-2,4.842041084E0
6.156010292E0,1.764473337E-1,-4.571873599E0,-3.765169801E-1,4.590743611E0
6.166017292E0,1.473507115E0,-4.039044611E0,-1.227993055E0,4.471361262E0
6.176023292E0,2.623777226E0,-3.648659644E0,-2.354793611E0,5.073655199E0
6.186030292E0,2.972015755E0,-4.067251872E0,-2.586104785E0,5.662451183E0
6.196037292E0,2.759825562E0,-5.258108091E0,-1.830471591E0,6.214093986E0
6.206044292E0,2.027238438E0,-5.865824416E0,-6.692211404E-1,6.242231067E0
6.216050292E0,1.400270154E0,-5.471243194E0,2.899436899E-1,5.655026608E0
6.226057292E0,1.603107727E0,-4.421356328E0,4.815053451E-1,4.727599133E0
6.236064292E0,2.286598704E0,-2.871816114E0,5.275100684E-1,3.708655861E0
6.246071167E0,3.605770317E0,-1.988299490E0,4.913345146E-1,4.146845071E0
6.256078167E0,4.680726535E0,-2.794383776E0,3.544324851E-1,5.462911675E0
6.266085167E0,4.920241352E0,-2.182053997E0,6.820502239E-1,5.425433358E0
6.276091167E0,4.129864442E0,-7.903663856E-1,1.071553870E0,4.339203501E0
6.286098167E0,3.239446934E0,9.865539193E-2,1.301205457E0,3.492403895E0
6.296105167E0,2.805903375E0,6.180050862E-1,1.522502105E0,3.251620626E0
6.306112167E0,2.542132553E0,6.605102509E-1,1.787146500E0,3.176885948E0
6.316118167E0,1.993526900E0,2.296821392E-1,2.083914914E0,2.893026920E0
6.326125167E0,6.361244380E-1,-2.120270562E-1,2.090135182E0,2.195056913E0
6.336132167E0,-1.213782567E0,-1.941585499E-1,1.659536866E0,2.065194488E0
6.346138167E0,-2.237939345E0,8.694926620E-2,1.272461715E0,2.575867136E0
6.356145167E0,-2.437212455E0,4.091682708E-1,1.315414191E0,2.799595992E0
6.366152167E0,-2.447023498E0,9.232578099E-1,1.286141276E0,2.914530556E0
6.376158167E0,-2.393406869E0,1.440123607E0,1.361928207E0,3.107603721E0
6.386165167E0,-2.399480957E0,1.698170004E0,1.758615012E0,3.425495145E0
6.396172167E0,-2.845957387E0,1.922183268E0,2.337600458E0,4.154351678E0
6.406178167E0,-3.335026106E0,2.428951508E0,2.783348910E0,4.976870072E0
6.416185167E0,-3.806917459E0,2.931248383E0,3.069036850E0,5.701212574E0
6.426192167E0,-4.202300919E0,3.021170958E0,3.285477385E0,6.130348164E0
6.436199167E0,-4.658449228E0,2.806223803E0,3.468212814E0,6.450158244E0
6.446205167E0,-5.101224956E0,2.894812628E0,3.500014066E0,6.830266076E0
6.456212167E0,-5.189790393E0,3.227325071E0,3.587251600E0,7.086460716E0
6.466219167E0,-4.969591852E0,3.393236307E0,3.333021095E0,6.878947989E0
6.476225167E0,-4.607714692E0,3.438560414E0,2.928626491E0,6.452254299E0
6.486232167E0,-4.166013098E0,3.550441623E0,2.646722285E0,6.080003265E0
6.496239167E0,-3.603123867E0,3.737420962E0,2.231253639E0,5.650602609E0
6.506245167E0,-2.957946185E0,3.859642972E0,1.737497792E0,5.163834629E0
6.516252167E0,-2.328622059E0,3.541466732E0,1.226407290E0,4.412317095E0
6.526259167E0,-1.998203503E0,3.083274820E0,9.042514354E-1,3.783790628E0
6.536265167E0,-1.801364005E0,2.843303921E0,6.076853353E-1,3.420317373E0
6.546272167E0,-1.456266015E0,2.594739368E0,1.595225680E-1,2.979736657E0
6.556279167E0,-9.720627648E-1,2.327922732E0,-4.660271806E-1,2.565406712E0
6.566286167E0,-4.087162811E-1,2.027983373E0,-1.217475230E0,2.400419025E0
6.576292167E0,2.798810703E-1,1.526722040E0,-1.809098702E0,2.383705459E0
6.586299167E0,8.730764204E-1,1.187065469E0,-1.973053460E0,2.462585393E0
6.596306167E0,1.283888928E0,1.165284591E0,-1.997479618E0,2.645030015E0
6.606312167E0,1.662008484E0,1.190963223E0,-1.514818279E0,2.544668940E0
6.616319167E0,2.370644243E0,1.161983837E0,-1.371047086E0,2.974883305E0
6.626326167E0,3.325248976E0,9.704173583E-1,-1.866655331E0,3.934894246E0
6.636332167E0,4.304241276E0,9.226263106E-1,-2.304736183E0,4.968857127E0
6.646339167E0,5.177241098E0,1.002677032E0,-2.508529190E0,5.839683666E0
6.656346167E0,5.822600629E0,9.424659133E-1,-2.409375615E0,6.371499897E0
6.666353167E0,6.386362849E0,7.343173152E-1,-2.000062333E0,6.732391975E0
6.676359167E0,6.725268053E0,4.713598412E-1,-1.445774356E0,6.895047061E0
6.686366167E0,6.989638215E0,1.566241032E-1,-9.322819640E-1,7.053277475E0
6.696373167E0,7.446417439E0,-5.091264224E-1,-3.606768729E-1,7.472511639E0
6.706379167E0,7.863389989E0,-1.484778208E0,3.575956826E-1,8.010327279E0
6.716386167E0,8.037284428E0,-2.474727021E0,9.965731233E-1,8.468492947E0
6.726393167E0,7.909584746E0,-3.252841735E0,1.330536699E0,8.655220282E0
6.736399167E0,7.659057868E0,-3.590243036E0,1.555144186E0,8.600551489E0
6.746406167E0,7.402234123E0,-3.341903601E0,1.742317067E0,8.306446801E0
6.756413167E0,7.313845857E0,-2.417639485E0,1.982030690E0,7.953978097E0
6.766419167E0,7.447921343E0,-9.608156455E-1,2.118396530E0,7.802711253E0
6.776426167E0,7.779335679E0,3.165442818E-1,2.093102059E0,8.062216824E0
6.786433167E0,8.088113104E0,1.161204988E0,1.368996614E0,8.284933454E0
6.796439167E0,8.341615046E0,1.620782105E0,7.048502719E-1,8.526798350E0
6.806446167E0,8.576016473E0,1.459210088E0,5.299337393E-1,8.715399153E0
6.816453167E0,8.335235733E0,8.143241823E-1,7.043210989E-1,8.404483733E0
6.826459167E0,7.851942310E0,1.354548436E-1,9.733105606E-1,7.913196541E0
6.836466167E0,7.255349727E0,-6.536000115E-1,1.434830561E0,7.424690659E0
6.846473167E0,6.240669531E0,-1.443407988E0,2.139917061E0,6.753416013E0
6.856480167E0,5.001000756E0,-1.517003383E0,2.881868062E0,5.967953699E0
6.866486167E0,3.952226615E0,-1.111857997E0,3.320182364E0,5.280145296E0
6.876493167E0,3.147444504E0,-5.703836077E-1,3.404248953E0,4.671258428E0
6.886500167E0,2.361849446E0,2.122831643E-2,3.156688952E0,3.942520588E0
6.896506167E0,1.552238120E0,5.646340406E-1,2.702721654E0,3.167484667E0
6.906513167E0,8.572532701E-1,1.016164804E0,2.390220283E0,2.735073505E0
6.916520167E0,3.186486948E-1,1.210587648E0,2.155333391E0,2.492493023E0
6.926526167E0,-1.386374831E-1,1.101009657E0,1.973647390E0,2.264227603E0
6.936533167E0,-7.207845193E-1,6.379230416E-1,1.670402016E0,1.927879411E0
6.946540167E0,-1.408852698E0,2.973809096E-1,1.356171039E0,1.978004352E0
6.956546167E0,-2.218379824E0,9.564407587E-2,1.120356778E0,2.487077832E0
6.966553167E0,-2.942934043E0,-2.034129381E-1,8.126565564E-1,3.059844487E0
6.976560167E0,-3.493265210E0,-6.554284358E-1,7.150424074E-1,3.625434306E0
6.986566167E0,-3.982906371E0,-1.195449207E0,7.750107202E-1,4.230045340E0
6.996573167E0,-4.511177162E0,-1.805136336E0,5.697474307E-1,4.892223289E0
7.006580167E0,-4.991060489E0,-2.321445771E0,2.784284757E-1,5.511562183E0
7.016587167E0,-5.450348169E0,-2.627881679E0,1.174793333E-2,6.050801211E0
7.026593167E0,-5.921716197E0,-2.838621178E0,-2.544680478E-1,6.571852622E0
7.036600167E0,-6.197667938E0,-3.032141212E0,-5.308992608E-1,6.920030507E0
7.046607167E0,-6.342836176E0,-3.301124826E0,-8.654662693E-1,7.202640331E0
7.056613167E0,-6.447641085E0,-3.469464118E0,-1.184481000E0,7.417024475E0
7.066620167E0,-6.482265372E0,-3.572036560E0,-1.438629059E0,7.539818507E0
7.076627167E0,-6.449403436E0,-3.710699186E0,-1.606069634E0,7.612066263E0
7.086633167E0,-6.294284990E0,-3.976986650E0,-1.684584584E0,7.633627681E0
7.096640167E0,-6.197915275E0,-4.433897144E0,-1.630111338E0,7.793000745E0
7.106647167E0,-6.194029800E0,-4.584887747E0,-1.306073264E0,7.816202927E0
7.116653167E0,-6.246919620E0,-4.535277338E0,-8.206331818E-1,7.763129787E0
7.126660167E0,-5.865616840E0,-4.723585749E0,-7.922344248E-1,7.572671829E0
7.136667167E0,-5.478891937E0,-5.134557593E0,-9.790395163E-1,7.572348177E0
7.146673167E0,-5.274980816E0,-5.504650676E0,-1.213902581E0,7.720114064E0
7.156680167E0,-5.424916874E0,-5.781685907E0,-1.500410885E0,8.069005381E0
7.166687167E0,-5.536301070E0,-5.831846831E0,-1.532692632E0,8.185976649E0
7.176693167E0,-5.458713196E0,-5.878716357E0,-1.004730135E0,8.084945171E0
7.186700167E0,-5.319352412E0,-5.760302054E0,-3.645983081E-1,7.849173318E0
7.196707167E0,-5.168131136E0,-5.690502672E0,2.080455409E-1,7.689907870E0
7.206713167E0,-4.894497816E0,-5.837611016E0,7.941840327E-1,7.659278003E0
7.216720167E0,-4.551839869E0,-6.188877819E0,1.269551556E0,7.786733333E0
7.226727167E0,-4.271424363E0,-6.712796527E0,1.601233694E0,8.116073721E0
7.236734167E0,-3.818670947E0,-7.078677860E0,1.925614414E0,8.270303436E0
7.246739917E0,-3.044736992E0,-7.338611739E0,1.782115117E0,8.142578210E0
7.256746917E0,-2.094214200E0,-7.651554721E0,1.209354617E0,8.024622194E0
7.266753917E0,-1.273753365E0,-7.975107476E0,6.136974424E-1,8.099469824E0
7.276759917E0,-6.418307358E-1,-8.325156888E0,1.951987696E-1,8.352142627E0
7.286766917E0,-1.118221521E-1,-8.536586943E0,3.022085901E-1,8.542666496E0
7.296773917E0,4.742191297E-1,-8.128056604E0,1.111349216E0,8.217377015E0
7.306779917E0,1.538306544E0,-7.450041543E0,2.269478642E0,7.938516192E0
7.316786917E0,3.331365164E0,-6.969156003E0,3.219514360E0,8.368536429E0
7.326793917E0,5.432173854E0,-6.791676636E0,3.629312961E0,9.423762352E0
7.336799917E0,7.025796227E0,-6.842580156E0,3.750592985E0,1.049998398E1
7.346806917E0,7.694874988E0,-7.206599736E0,3.655430719E0,1.115833117E1
7.356813917E0,7.906398014E0,-7.715661255E0,3.404771694E0,1.156006178E1
7.366819917E0,8.223763245E0,-8.264717728E0,3.553881540E0,1.218876183E1
7.376826917E0,8.362033523E0,-8.632815156E0,4.443730699E0,1.281389264E1
7.386833917E0,7.567253074E0,-7.795472825E0,5.780641594E0,1.230644274E1
7.396839917E0,5.916876456E0,-6.244773107E0,7.171557373E0,1.119990417E1
7.406846917E0,4.796613087E0,-4.979357287E0,8.471143152E0,1.093443014E1
7.416853917E0,4.728097168E0,-2.998341089E0,9.981425160E0,1.144437855E1
7.426859917E0,6.762729410E0,1.582344264E-1,1.013478593E1,1.218496751E1
7.436866917E0,1.028679600E1,4.081515570E0,7.241091292E0,1.322536746E1
7.446873917E0,1.350495848E1,8.179236113E0,1.918235228E0,1.590482422E1
7.456879917E0,1.335168659E1,1.116665226E1,-2.981288270E0,1.765926774E1
7.466886917E0,1.253237941E1,1.714006486E1,-5.157956396E0,2.185055769E1
7.476893917E0,1.151525508E1,2.177191335E1,-9.711360396E0,2.647504167E1
7.486899917E0,8.727077535E0,2.134475554E1,-1.553550001E1,2.780489583E1
7.496906917E0,7.601025422E0,1.874945250E1,-1.926795786E1,2.793871430E1
7.506913917E0,7.590840742E0,1.501364069E1,-2.094903937E1,2.686805763E1
7.516919917E0,7.080267134E0,1.167444435E1,-1.974647995E1,2.400721359E1
7.526926917E0,5.386035229E0,1.090982735E1,-1.525284093E1,1.951109594E1
7.536933917E0,2.931479933E0,1.126460833E1,-9.414265707E0,1.497041663E1
7.546939917E0,1.117446181E0,1.081974865E1,-4.211450057E0,1.166413128E1
7.556946917E0,3.704848462E-1,9.145111354E0,-3.358991504E-1,9.158774423E0
7.566953917E0,-2.077942568E-1,7.156502547E0,2.124618552E0,7.468112957E0
7.576959917E0,-1.280214538E0,5.757910543E0,2.292264656E0,6.328266772E0
7.586966917E0,-3.570673574E0,5.058286512E0,-1.121393782E0,6.292336309E0
7.596973917E0,-6.105718133E0,4.660868806E0,-4.530860644E0,8.918082200E0
7.606980917E0,-8.347772748E0,3.401883754E0,-6.574904564E0,1.115739633E1
7.616986917E0,-9.956224830E0,1.511798192E0,-6.998310220E0,1.226329045E1
7.626993917E0,-1.115805452E1,-1.076215709E0,-6.089569293E0,1.275708725E1
7.637000917E0,-1.179765922E1,-3.998653507E0,-3.932244925E0,1.306279232E1
7.647006917E0,-1.123841982E1,-6.453269615E0,2.172970055E-1,1.296124943E1
7.657013917E0,-9.349847517E0,-7.574008362E0,4.119933531E0,1.271845523E1
7.667020917E0,-7.102376041E0,-7.528559709E0,5.745483456E0,1.183780118E1
7.677026917E0,-5.203158882E0,-6.488056455E0,5.150780109E0,9.782549496E0
7.687033917E0,-4.364909062E0,-4.207599081E0,2.932085119E0,6.734496588E0
7.697040917E0,-4.360073415E0,-2.888046815E0,2.172473334E0,5.663099414E0
7.707046917E0,-3.521676831E0,-3.504028764E0,3.891621979E0,6.310716830E0
7.717053917E0,-1.069692555E0,-4.855618510E0,5.980221682E0,7.777166878E0
7.727060917E0,1.126946152E0,-6.285693092E0,6.748349352E0,9.290864559E0
7.737066917E0,2.635739459E0,-7.548252547E0,6.755770054E0,1.046726650E1
7.747073917E0,2.966097203E0,-7.943588060E0,6.298928264E0,1.056289833E1
7.757080917E0,3.163806767E0,-7.111674868E0,5.136376078E0,9.325660936E0
7.767086917E0,3.941915635E0,-5.834375167E0,2.790737452E0,7.574090572E0
7.777093917E0,4.907986173E0,-4.236300724E0,-2.948487729E-1,6.490108465E0
7.787100917E0,5.549016425E0,-3.201593229E0,-3.508747467E0,7.304320042E0
7.797106917E0,5.946011378E0,-2.820009198E0,-5.484830954E0,8.566847365E0
7.807113917E0,6.703070853E0,-3.134769495E0,-5.716425717E0,9.350693110E0
7.817120917E0,7.203326465E0,-3.780942373E0,-4.651086999E0,9.371021698E0
7.827126917E0,6.505156052E0,-4.073116044E0,-2.891856861E0,8.201839164E0
7.837133917E0,4.789698755E0,-4.262331358E0,-9.612273625E-1,6.483258502E0
7.847140917E0,3.633220655E0,-4.407211329E0,9.178257465E-1,5.784998542E0
7.857146917E0,2.925747907E0,-4.565382020E0,2.840980237E0,6.121591502E0
7.867153917E0,2.557154050E0,-4.453819485E0,4.400301674E0,6.763002267E0
7.877160917E0,2.739553265E0,-4.212967994E0,4.963007303E0,7.062980454E0
7.887166917E0,2.873755050E0,-3.919427243E0,4.315182586E0,6.499321408E0
7.897173917E0,2.716837417E0,-3.107796873E0,3.400972758E0,5.348478537E0
7.907180917E0,2.631686170E0,-2.228927616E0,2.371895548E0,4.185663496E0
7.917186917E0,2.911529818E0,-1.277107912E0,1.721727852E0,3.615571503E0
7.927193917E0,3.158974628E0,-4.954772669E-1,1.502764243E0,3.533117433E0
7.937200917E0,3.214816707E0,2.394902587E-1,1.664638562E0,3.628143270E0
7.947206917E0,2.742920676E0,8.439233726E-1,2.041703280E0,3.521984210E0
7.957213917E0,1.863590659E0,1.408327618E0,2.168401333E0,3.187212130E0
7.967220917E0,9.125942427E-1,1.849763748E0,2.009237784E0,2.879494860E0
7.977226917E0,1.231306672E-1,2.262662542E0,2.010127730E0,3.029094986E0
7.987233917E0,-5.910535151E-1,2.529507245E0,1.965835657E0,3.257646542E0
7.997240917E0,-1.385221760E0,2.537215045E0,1.612235230E0,3.309924765E0
8.007246917E0,-2.384775794E0,2.556978049E0,1.172627451E0,3.687864893E0
8.017253917E0,-3.346160958E0,2.656675707E0,8.123431456E-1,4.349094200E0
8.027260917E0,-4.028484247E0,2.601283572E0,3.608936584E-1,4.808909001E0
8.037266917E0,-4.423201709E0,2.359438055E0,7.255524851E-2,5.013673858E0
8.047273917E0,-4.796989063E0,2.101986904E0,-2.196131607E-1,5.241915962E0
8.057280917E0,-5.110761180E0,1.975100570E0,-6.211883835E-1,5.514234045E0
8.067286917E0,-5.240236076E0,1.865195720E0,-1.171021294E0,5.684216751E0
8.077293917E0,-5.146136250E0,1.807114157E0,-1.533655084E0,5.665728355E0
8.087300917E0,-4.940728242E0,1.763753837E0,-1.654685431E0,5.500873297E0
8.097306917E0,-4.683999222E0,1.635017152E0,-1.722597917E0,5.251711472E0
8.107313917E0,-4.427653779E0,1.477115724E0,-1.750753430E0,4.985090413E0
8.117320917E0,-4.153688922E0,1.271738707E0,-1.559973401E0,4.615622169E0
8.127326917E0,-3.772733467E0,9.997791517E-1,-1.316728061E0,4.119083508E0
8.137333917E0,-3.364577349E0,7.755624050E-1,-1.162682580E0,3.643310111E0
8.147340917E0,-2.997885591E0,5.077444330E-1,-9.178409493E-1,3.176091062E0
8.157346917E0,-2.621417874E0,2.289857358E-1,-6.908286488E-1,2.720571697E0
8.167353917E0,-2.310282851E0,-1.749369979E-2,-9.057471532E-1,2.481550078E0
8.177360917E0,-2.144065806E0,-4.580045083E-1,-1.601123912E0,2.714845133E0
8.187366917E0,-1.876969673E0,-8.494989851E-1,-2.395156502E0,3.159341442E0
8.197373917E0,-1.140587121E0,-1.151792141E0,-2.693971295E0,3.144049213E0
8.207380917E0,-1.143943423E-1,-1.602076862E0,-2.548594896E0,3.012486064E0
8.217386917E0,8.429410404E-1,-2.165012287E0,-2.184068947E0,3.188727798E0
8.227393917E0,1.722404959E0,-2.649257637E0,-1.428740832E0,3.467930974E0
8.237400917E0,2.424635094E0,-2.902736775E0,-5.962587065E-1,3.828871970E0
8.247406667E0,2.944578865E0,-2.833330325E0,-6.328514591E-3,4.086360908E0
8.257413667E0,3.184050997E0,-2.360444360E0,3.139779389E-1,3.975985473E0
8.267420667E0,3.409636577E0,-1.735144288E0,4.031344559E-1,3.846929253E0
8.277426667E0,3.640054296E0,-1.297025868E0,3.716771666E-1,3.882063278E0
8.287433667E0,3.619364508E0,-1.161642360E0,2.404608965E-2,3.801288023E0
8.297440667E0,3.577365713E0,-1.041980846E0,-6.015819385E-1,3.774277461E0
8.307446667E0,3.637977950E0,-1.033825734E0,-9.713218495E-1,3.904759320E0
8.317453667E0,3.602384194E0,-1.078784975E0,-1.028814086E0,3.898641729E0
8.327460667E0,3.835722597E0,-1.198934147E0,-9.233846945E-1,4.123451252E0
8.337466667E0,4.390823337E0,-1.606044198E0,-7.082054043E-1,4.728663917E0
8.347473667E0,5.071281365E0,-2.094767346E0,-4.713359042E-1,5.507095645E0
8.357480667E0,5.710023601E0,-2.455315434E0,-2.742106598E-2,6.215600962E0
8.367486667E0,5.760680954E0,-2.395013684E0,5.503703427E-1,6.262942049E0
8.377493667E0,5.044931472E0,-1.550673990E0,1.382288212E0,5.455881604E0
8.387500667E0,4.045780896E0,-7.951160789E-2,2.366675738E0,4.687837370E0
8.397506667E0,3.315228603E0,1.396357782E0,3.141617169E0,4.776014466E0
8.407513667E0,2.816685056E0,2.509988655E0,3.727860180E0,5.303838164E0
8.417520667E0,2.687473869E0,3.130979329E0,4.016227314E0,5.758092496E0
8.427527667E0,3.098746553E0,3.066973368E0,3.871406400E0,5.830638332E0
8.437533667E0,3.589647204E0,2.631830596E0,3.487023892E0,5.654328869E0
8.447540667E0,3.646735910E0,2.082278863E0,2.900285037E0,5.103549878E0
8.457547667E0,3.206210191E0,1.648772727E0,2.401766049E0,4.332056722E0
8.467553667E0,2.465684887E0,1.378606220E0,2.096080631E0,3.517628616E0
8.477560667E0,1.616794889E0,1.203884400E0,1.792114295E0,2.697227652E0
8.487567667E0,5.070915914E-1,1.204370888E0,1.713583850E0,2.154999009E0
8.497573667E0,-6.207936233E-1,1.358397658E0,1.610127309E0,2.196164582E0
8.507580667E0,-1.567489997E0,1.591589296E0,1.458649925E0,2.667928219E0
8.517587667E0,-2.288811876E0,1.971460093E0,1.387474108E0,3.324214058E0
8.527593667E0,-2.804769015E0,2.400094914E0,1.414974732E0,3.953395796E0
8.537600667E0,-3.031533394E0,2.763794067E0,1.355614969E0,4.320468066E0
8.547607667E0,-3.007196698E0,3.101569589E0,1.229356041E0,4.491579028E0
8.557613667E0,-3.018125728E0,3.430088968E0,9.022874288E-1,4.657114541E0
8.567620667E0,-3.187656975E0,3.655343596E0,3.214454911E-1,4.860660552E0
8.577627667E0,-3.427495143E0,3.614368063E0,-6.710081957E-2,4.981554172E0
8.587633667E0,-3.776418382E0,3.424158722E0,-3.008496972E-1,5.106535938E0
8.597640667E0,-4.130259129E0,3.155467469E0,-5.613595998E-1,5.227919282E0
8.607647667E0,-4.299182850E0,2.945995061E0,-7.861295662E-1,5.270660279E0
8.617653667E0,-4.325139810E0,2.728832395E0,-9.320163542E-1,5.198270395E0
8.627660667E0,-4.334920447E0,2.373080778E0,-1.141476556E0,5.072082057E0
8.637667667E0,-4.359730768E0,2.016665795E0,-1.368866513E0,4.994796175E0
8.647673667E0,-4.414533212E0,1.682195119E0,-1.522598584E0,4.963485705E0
8.657680667E0,-4.237156171E0,1.385472021E0,-1.419850141E0,4.678568110E0
8.667687667E0,-3.834357857E0,1.049126143E0,-1.253336057E0,4.168191108E0
8.677693667E0,-3.213503423E0,7.367289993E-1,-1.019176705E0,3.450810778E0
8.687700667E0,-2.427976193E0,3.756374127E-1,-8.770555238E-1,2.608715824E0
8.697707667E0,-1.840453811E0,2.086254385E-1,-8.570358268E-1,2.040907939E0
8.707713667E0,-1.311176130E0,1.706194139E-1,-8.834195602E-1,1.590196197E0
8.717720667E0,-5.550650722E-1,1.675227284E-1,-8.751323014E-1,1.049770282E0
8.727727667E0,-1.443332559E-1,6.107796818E-2,-4.968782598E-1,5.210092245E-1
8.737734667E0,-1.062197594E0,-7.799030855E-1,1.552687186E-1,1.326883916E0
8.747740667E0,2.043952703E-1,-1.132222095E0,3.632102522E-1,1.206493259E0
8.757747667E0,5.063671213E-1,-1.486358126E0,7.464279952E-1,1.738626726E0
8.767754667E0,5.774107915E-1,-2.214294375E0,9.099355137E-1,2.462617599E0
8.777760667E0,9.926958346E-1,-2.724567144E0,9.650409166E-1,3.056143830E0
8.787767667E0,1.318512631E0,-2.889110716E0,9.590889627E-1,3.317421879E0
8.797774667E0,1.897899197E0,-2.849368360E0,8.718537676E-1,3.532853012E0
8.807780667E0,2.550000567E0,-2.721420465E0,7.552281278E-1,3.805128350E0
8.817787667E0,3.126971648E0,-2.505580439E0,2.974023250E-1,4.018001140E0
8.827794667E0,3.347745554E0,-2.158084213E0,-3.114390779E-1,3.995212393E0
8.837800667E0,3.357173020E0,-1.574720372E0,-8.210660219E-1,3.797960551E0
8.847807667E0,3.279883938E0,-9.231242010E-1,-9.739262724E-1,3.543773317E0
8.857814667E0,3.440608694E0,-7.955259687E-1,-1.116351655E0,3.703632105E0
8.867820667E0,3.559009548E0,-1.209830141E0,-1.252219239E0,3.962106884E0
8.877827667E0,3.391047109E0,-1.437270458E0,-1.322551303E0,3.913321967E0
8.887834667E0,3.005806814E0,-1.323451774E0,-1.400684722E0,3.570478525E0
8.897840667E0,2.787292857E0,-1.202281678E0,-1.558525046E0,3.412254830E0
8.907847667E0,2.982403334E0,-1.428910401E0,-1.753282351E0,3.743062060E0
8.917854667E0,3.530093898E0,-1.801016681E0,-1.596438246E0,4.272451180E0
8.927860667E0,3.954135731E0,-2.071218270E0,-1.032757594E0,4.581672484E0
8.937867667E0,4.039062445E0,-1.980862124E0,-1.761405011E-1,4.502095697E0
8.947874667E0,3.941104041E0,-1.675883927E0,7.218352640E-1,4.343032828E0
8.957880667E0,4.021607337E0,-1.318890654E0,1.317838447E0,4.432775237E0
8.967887667E0,4.413291848E0,-9.478172851E-1,1.216841757E0,4.675062182E0
8.977894667E0,4.954245250E0,-6.091111788E-1,7.437347677E-1,5.046652735E0
8.987900667E0,5.344987190E0,-1.858365002E-1,3.182837554E-1,5.357679331E0
8.997907667E0,5.435023202E0,2.829564133E-1,5.168222353E-2,5.442629198E0
9.007914667E0,5.149030037E0,7.467751005E-1,7.119905993E-2,5.203388577E0
9.017920667E0,4.572703904E0,1.248740730E0,4.000768737E-1,4.756998624E0
9.027927667E0,3.977382506E0,1.753715337E0,9.568738912E-1,4.450920885E0
9.037934667E0,3.372333680E0,2.201112412E0,1.465153783E0,4.285347816E0
9.047940667E0,2.695101562E0,2.620978456E0,1.804988694E0,4.170261944E0
9.057947667E0,1.860096948E0,2.859094326E0,1.994067183E0,3.951035934E0
9.067954667E0,9.550590616E-1,2.982938939E0,1.956861935E0,3.693151927E0
9.077960667E0,1.466633713E-1,3.162642587E0,1.778706629E0,3.631475671E0
9.087967667E0,-5.360370630E-1,3.264077453E0,1.278152225E0,3.546154320E0
9.097974667E0,-1.044585196E0,3.267389316E0,5.275143076E-1,3.470628548E0
9.107980667E0,-1.462728358E0,3.277170830E0,-1.579775874E-1,3.592266669E0
9.117987667E0,-2.012503454E0,3.074369803E0,-6.715041858E-1,3.735349744E0
9.127994667E0,-2.569194637E0,2.685772330E0,-9.268760669E-1,3.830565667E0
9.138000667E0,-3.065926716E0,2.220999961E0,-8.589349294E-1,3.882076335E0
9.148007667E0,-3.609281570E0,1.721236978E0,-6.135711426E-1,4.045496228E0
9.158014667E0,-4.213399519E0,1.180946358E0,-2.804513200E-1,4.384748881E0
9.168020667E0,-4.822533794E0,6.141918245E-1,-1.270703749E-1,4.863148226E0
9.178027667E0,-5.402926666E0,5.285444409E-2,-1.237469637E-1,5.404602063E0
9.188034667E0,-6.012834527E0,-5.287873927E-1,-2.885279328E-1,6.042933355E0
9.198040667E0,-6.616055514E0,-9.259174159E-1,-5.495394534E-1,6.703096839E0
9.208047667E0,-6.946553006E0,-1.134166294E0,-6.875134237E-1,7.072029875E0
9.218054667E0,-6.919054136E0,-1.331126537E0,-9.292658240E-1,7.106950328E0
9.228060667E0,-6.530579746E0,-1.601177999E0,-1.242316394E0,6.837806141E0
9.238067667E0,-5.919408885E0,-1.837422761E0,-1.356101457E0,6.344646177E0
9.248074417E0,-5.365758839E0,-1.975351269E0,-1.175709153E0,5.837437158E0
9.258080417E0,-4.918935669E0,-2.130524240E0,-8.156013604E-1,5.422201327E0
9.268087417E0,-4.455981785E0,-2.468606448E0,-5.762157668E-1,5.126579374E0
9.278094417E0,-3.983402799E0,-2.981896965E0,-2.766259253E-1,4.983545853E0
9.288100417E0,-3.394111635E0,-3.446661147E0,-6.242312014E-2,4.837702295E0
9.298107417E0,-2.667227885E0,-3.894418117E0,6.521107256E-2,4.720683165E0
9.308114417E0,-1.711276538E0,-4.457834183E0,8.858370915E-2,4.775835013E0
9.318120417E0,-8.010252750E-1,-5.037226596E0,3.890839621E-2,5.100667322E0
9.328127417E0,-3.573642790E-1,-5.449419047E0,-1.760786667E-2,5.461152553E0
9.338134417E0,-1.687687701E-1,-5.502897681E0,-2.587451398E-2,5.505545865E0
9.348140417E0,1.239212108E-1,-5.221340214E0,1.533859152E-1,5.225062424E0
9.358147417E0,5.857302099E-1,-4.764353998E0,4.754645135E-1,4.823713860E0
9.368154417E0,1.141479406E0,-4.292432240E0,7.820018705E-1,4.509930897E0
9.378160417E0,1.868362572E0,-3.924472221E0,9.431114459E-1,4.447664568E0
9.388167417E0,2.507567908E0,-3.897679110E0,9.138391149E-1,4.723865068E0
9.398174417E0,2.722088801E0,-3.993635427E0,6.498718268E-1,4.876599712E0
9.408180417E0,2.431478090E0,-3.924619279E0,2.640895680E-1,4.624334059E0
9.418187417E0,2.218487998E0,-3.824577804E0,-1.852971677E-1,4.425315742E0
9.428194417E0,2.322014705E0,-3.880269025E0,-4.933575781E-1,4.548806623E0
9.438200417E0,2.762793024E0,-3.799939392E0,-4.046384329E-1,4.715537820E0
9.448207417E0,3.267546313E0,-3.507190354E0,-1.849140289E-1,4.797023690E0
9.458214417E0,3.476149825E0,-2.952292804E0,2.781497828E-1,4.569137524E0
9.468220417E0,3.297278236E0,-1.936752775E0,1.008083367E0,3.954653860E0
9.478227417E0,3.069241503E0,-6.226243865E-1,1.589235792E0,3.511918982E0
9.488234417E0,3.055702860E0,4.745454043E-1,1.918753291E0,3.639248205E0
9.498240417E0,3.404981024E0,1.138844943E0,2.222389260E0,4.222543973E0
9.508247417E0,3.807452479E0,1.364879297E0,2.302122477E0,4.653961514E0
9.518254417E0,3.887404967E0,1.289616861E0,2.008011623E0,4.561484375E0
9.528260417E0,3.447452860E0,1.049531356E0,1.745003278E0,4.003933532E0
9.538267417E0,2.719604904E0,7.688655889E-1,1.481458744E0,3.190944239E0
9.548274417E0,1.972788581E0,5.567762598E-1,1.603906456E0,2.602769776E0
9.558280417E0,1.043582398E0,3.197298449E-1,1.793215910E0,2.099265275E0
9.568287417E0,2.760604995E-1,3.813907805E-1,2.111621361E0,2.163472463E0
9.578294417E0,-3.052153015E-1,7.462292629E-1,2.361664090E0,2.495490286E0
9.588300417E0,-7.407521760E-1,1.221601171E0,2.389384570E0,2.783914839E0
9.598307417E0,-1.090371818E0,1.816734581E0,2.167219611E0,3.030887012E0
9.608314417E0,-1.386236837E0,2.468980085E0,1.759517822E0,3.333679378E0
9.618320417E0,-1.657196226E0,3.029281631E0,1.357252189E0,3.710118601E0
9.628327417E0,-1.902458271E0,3.550923142E0,9.765276986E-1,4.145118693E0
9.638334417E0,-2.143454188E0,4.027761531E0,7.149951911E-1,4.618276403E0
9.648340417E0,-2.467964716E0,4.257001621E0,5.177206600E-1,4.947822483E0
9.658347417E0,-2.748143409E0,4.353486234E0,4.580971867E-1,5.168654334E0
9.668354417E0,-2.913879229E0,4.365201131E0,5.566607773E-1,5.277835190E0
9.678360417E0,-2.959421437E0,4.307529750E0,7.225603187E-1,5.275896247E0
9.688367417E0,-3.016693745E0,4.059470397E0,6.732149349E-1,5.102250426E0
9.698373417E0,-3.272819917E0,3.596713857E0,4.697590198E-1,4.885527025E0
9.708380417E0,-3.599551218E0,3.292186188E0,2.309609252E-1,4.883503027E0
9.718387417E0,-3.755448512E0,3.180618097E0,7.100522473E-2,4.921866186E0
9.728393417E0,-3.735303685E0,2.972182693E0,1.884901129E-2,4.773543638E0
9.738400417E0,-3.447115476E0,2.612803464E0,-2.061628836E-1,4.330340654E0
9.748407417E0,-3.114764416E0,2.296586334E0,-5.593450879E-1,3.910106530E0
9.758413417E0,-2.916604616E0,2.129191951E0,-9.080417468E-1,3.723517244E0
9.768420417E0,-2.730567849E0,2.020538698E0,-1.057645537E0,3.557694687E0
9.778427417E0,-2.347778122E0,1.946131124E0,-1.033913442E0,3.220010166E0
9.788433417E0,-1.648583277E0,1.982299369E0,-8.774811280E-1,2.723474020E0
9.798440417E0,-8.570147038E-1,2.006953277E0,-7.636451948E-1,2.312031497E0
9.808447417E0,-3.035389048E-1,1.941521472E0,-7.461153884E-1,2.101982318E0
9.818453417E0,1.916892707E-1,1.849766379E0,-7.927331923E-1,2.021585108E0
9.828460417E0,8.105696851E-1,1.806543176E0,-8.735769421E-1,2.164199191E0
9.838467417E0,1.510628749E0,1.619301006E0,-9.822870599E-1,2.422606619E0
9.848473417E0,2.203928431E0,1.193751760E0,-1.163036482E0,2.763149951E0
9.858480417E0,2.826507209E0,7.927368468E-1,-1.290503445E0,3.206707634E0
9.868487417E0,3.298715481E0,5.343893176E-1,-1.265536273E0,3.573328676E0
9.878493417E0,3.737999836E0,2.322853196E-1,-1.138439439E0,3.914414848E0
9.888500417E0,4.290283973E0,-6.302362919E-2,-9.800233103E-1,4.401244623E0
9.898507417E0,4.755849808E0,-3.423901445E-1,-7.987162095E-1,4.834592639E0
9.908513417E0,5.178909309E0,-4.429891509E-1,-4.411724210E-1,5.216509764E0
9.918520417E0,5.630127831E0,-4.075509310E-1,5.519011438E-2,5.645129149E0
9.928527417E0,6.017428100E0,-5.116372168E-1,5.534309216E-1,6.064445512E0
9.938533417E0,6.176463595E0,-8.370137179E-1,9.291265140E-1,6.301791062E0
9.948540417E0,6.018988722E0,-1.215318046E0,1.184457611E0,6.253651975E0
9.958546417E0,5.504608576E0,-1.464543918E0,1.431126935E0,5.873136195E0
9.968553417E0,4.987483163E0,-1.591291088E0,1.699860288E0,5.504245691E0
9.978560417E0,4.733495902E0,-1.676830591E0,1.847057072E0,5.350641468E0
9.988566417E0,4.822054322E0,-1.689616697E0,1.906741502E0,5.453684592E0
9.998573417E0,5.062367284E0,-1.557363204E0,1.753169500E0,5.579116952E0
1.000858042E1,5.117528163E0,-1.193347718E0,1.447388041E0,5.450514234E0
1.001858642E1,5.064074671E0,-6.515102166E-1,9.876175278E-1,5.200452501E0
1.002859342E1,5.189959962E0,-2.342628479E-1,5.185948187E-1,5.221063500E0
1.003860042E1,5.480524480E0,-1.453155881E-1,1.234380846E-1,5.483840092E0
1.004860642E1,5.779397306E0,-1.588863909E-1,-1.028286959E-1,5.782495296E0
1.005861342E1,5.906056768E0,-2.497749263E-1,-8.560104445E-2,5.911955819E0
1.006862042E1,5.845967272E0,-5.213652295E-1,1.995356494E-1,5.872560730E0
1.007862642E1,5.456702338E0,-7.805831167E-1,6.030864271E-1,5.545144151E0
1.008863342E1,4.696366668E0,-8.036231929E-1,9.633322140E-1,4.861036831E0
1.009864042E1,3.709765386E0,-5.581521097E-1,1.341503152E0,3.984159096E0
1.010864642E1,2.768798699E0,-2.081746182E-1,1.678576570E0,3.244565026E0
1.011865342E1,1.903838214E0,2.173883682E-1,2.092289296E0,2.837169742E0
1.012866042E1,1.115503151E0,5.519254097E-1,2.430125483E0,2.730289142E0
1.013866642E1,2.237273347E-1,6.399569955E-1,2.458540174E0,2.550297760E0
1.014867342E1,-5.977398062E-1,7.096932283E-1,2.313006923E0,2.492179444E0
1.015867942E1,-1.039387021E0,9.065379891E-1,2.146802303E0,2.551645868E0
1.016868642E1,-1.257137917E0,1.122071036E0,1.799795782E0,2.465502790E0
1.017869342E1,-1.426964448E0,1.252704265E0,1.364500982E0,2.338238320E0
1.018869942E1,-1.687416975E0,1.182587964E0,8.815256470E-1,2.241200082E0
1.019870642E1,-2.207871793E0,8.577941376E-1,4.116467594E-1,2.404155089E0
1.020871342E1,-2.857985694E0,3.565716890E-1,8.079390228E-2,2.881276324E0
1.021871942E1,-3.546649119E0,-2.224500105E-1,-1.936276227E-1,3.558889664E0
1.022872642E1,-4.297051540E0,-8.072087055E-1,-4.603414942E-1,4.396379433E0
1.023873342E1,-5.155311116E0,-1.374873797E0,-7.307627928E-1,5.385306390E0
1.024874004E1,-6.107684551E0,-1.778527704E0,-1.043659435E0,6.446409574E0
1.025874704E1,-6.912495899E0,-2.048362235E0,-1.344260260E0,7.333854583E0
1.026875404E1,-7.525864727E0,-2.359890044E0,-1.552542175E0,8.038538930E0
1.027876004E1,-7.930603148E0,-2.680927327E0,-1.580639800E0,8.519404897E0
1.028876704E1,-8.011613982E0,-2.982162428E0,-1.508374208E0,8.680693757E0
1.029877304E1,-7.841978070E0,-3.313289081E0,-1.480911444E0,8.641041794E0
1.030878004E1,-7.735944661E0,-3.737445813E0,-1.492427682E0,8.720130812E0
1.031878704E1,-7.669336689E0,-4.196995155E0,-1.491335422E0,8.868910582E0
1.032879304E1,-7.676850361E0,-4.601720419E0,-1.489227501E0,9.073459143E0
1.033880004E1,-7.441332700E0,-4.895687140E0,-1.362430045E0,9.010960024E0
1.034880704E1,-6.865683090E0,-5.121855687E0,-1.106672247E0,8.636882159E0
1.035881304E1,-6.196579186E0,-5.358431109E0,-9.083855630E-1,8.242301978E0
1.036882004E1,-5.186354569E0,-5.571519434E0,-5.844357826E-1,7.634243100E0
1.037882704E1,-4.108326808E0,-5.677538225E0,-1.262548345E-1,7.009188950E0
1.038883304E1,-3.047563536E0,-5.814580003E0,2.340617037E-1,6.569000609E0
1.039884004E1,-1.920408053E0,-5.982023794E0,5.787813789E-1,6.309323549E0
1.040884704E1,-1.119923061E0,-5.832733269E0,9.614262410E-1,6.016589189E0
1.041885304E1,-8.451202977E-1,-5.651844975E0,1.157456850E0,5.830719192E0
1.042886004E1,-2.878958488E-1,-5.580379136E0,1.272342870E0,5.730826441E0
1.043886604E1,3.309752101E-1,-5.500908458E0,1.397388062E0,5.685264449E0
1.044887304E1,4.609102821E-1,-5.396833867E0,1.206088727E0,5.549135436E0
1.045888004E1,7.287577826E-1,-5.316835771E0,1.094979351E0,5.477116969E0
1.046888604E1,1.339721652E0,-5.082178236E0,1.067962291E0,5.363201766E0
1.047889304E1,2.084611318E0,-4.885538127E0,5.645340532E-1,5.341608918E0
1.048890004E1,2.576694860E0,-4.753455081E0,-1.783734065E-1,5.409852926E0
1.049890604E1,2.923557540E0,-4.679774316E0,-1.061088816E0,5.619020005E0
1.050891304E1,3.320702181E0,-4.672069440E0,-1.588838181E0,5.948083943E0
1.051892004E1,3.639698201E0,-4.370392581E0,-1.606992032E0,5.910174084E0
1.052892604E1,3.896448855E0,-3.656382938E0,-8.589121252E-1,5.411947885E0
1.053893304E1,4.364322587E0,-2.774343029E0,4.628708535E-1,5.192161429E0
1.054894004E1,4.817270715E0,-1.436409163E0,1.999229105E0,5.409832293E0
1.055894604E1,4.890446865E0,9.312392592E-2,3.136302050E0,5.810467550E0
1.056895304E1,4.735560554E0,1.051041691E0,3.597047440E0,6.038954602E0
1.057895904E1,4.527621871E0,1.446390945E0,3.436526168E0,5.865246685E0
1.058896604E1,4.297412313E0,1.577675554E0,2.944832634E0,5.443239108E0
1.059897304E1,4.025386977E0,1.642161280E0,2.159368554E0,4.854205037E0
1.060897904E1,3.906625350E0,1.734756618E0,1.394134086E0,4.496077401E0
1.061898604E1,3.940015875E0,1.878998072E0,8.774314997E-1,4.452442575E0
1.062899304E1,4.026850535E0,2.057592211E0,7.108675685E-1,4.577613313E0
1.063899904E1,3.911473276E0,2.196348100E0,8.093124606E-1,4.558350011E0
1.064900604E1,3.408789901E0,2.297326006E0,1.165528493E0,4.272705470E0
1.065901304E1,2.584473411E0,2.380973935E0,1.578878034E0,3.852453184E0
1.066901904E1,1.587460577E0,2.745151974E0,2.059830233E0,3.781374226E0
1.067902604E1,7.384951508E-1,3.341635798E0,2.495336702E0,4.235399645E0
1.068903204E1,2.580504906E-1,3.892500231E0,2.568581264E0,4.670734183E0
1.069903904E1,-7.076300383E-2,4.469281277E0,2.148566993E0,4.959417573E0
1.070904604E1,-2.962696463E-1,5.243486543E0,1.505235862E0,5.463301367E0
1.071905204E1,-5.379479331E-1,5.937886087E0,9.003426448E-1,6.029800663E0
1.072905904E1,-9.827117139E-1,6.348772854E0,2.394189227E-1,6.428838191E0
1.073906604E1,-1.562428647E0,6.519259536E0,-1.887124532E-1,6.706529696E0
1.074907204E1,-1.945193231E0,6.572637599E0,-2.245793471E-1,6.858117642E0
1.075907904E1,-2.243388950E0,6.530007888E0,-1.982907772E-2,6.904649896E0
1.076908604E1,-2.462746661E0,6.423625985E0,2.250002005E-1,6.883219959E0
1.077909204E1,-2.592177118E0,6.227226782E0,3.879551572E-1,6.756348482E0
1.078909904E1,-2.640636503E0,5.946638199E0,3.933982571E-1,6.518452976E0
1.079910504E1,-2.652908639E0,5.601561844E0,3.257535734E-1,6.206571898E0
1.080911204E1,-2.510389774E0,5.223209569E0,2.690420866E-1,5.801410058E0
1.081911904E1,-2.080327063E0,4.833495569E0,1.858472445E-1,5.265451481E0
1.082912504E1,-1.444387981E0,4.303087036E0,4.550770998E-2,4.539260472E0
1.083913204E1,-9.499591202E-1,3.581486830E0,-8.591547847E-2,3.706325905E0
1.084913904E1,-6.479942858E-1,2.839306179E0,-1.240972120E-1,2.914953909E0
1.085914504E1,-3.158677590E-1,2.053284275E0,-2.089736402E-1,2.087922110E0
1.086915204E1,1.949461699E-2,1.554665299E0,-2.445890307E-1,1.573908519E0
1.087915904E1,3.913430339E-1,1.436061546E0,-1.468567680E-1,1.495656727E0
1.088916504E1,9.250482273E-1,1.480551841E0,1.651838422E-2,1.745858194E0
1.089917204E1,1.664396487E0,1.508566436E0,1.964581867E-1,2.254902254E0
1.090917804E1,2.556344211E0,1.396998637E0,2.123444138E-1,2.920888746E0
1.091918504E1,3.501475285E0,1.109746567E0,3.913651071E-2,3.673336124E0
1.092919204E1,4.283093652E0,7.918012923E-1,-6.830658853E-2,4.356203198E0
1.093919804E1,4.896318639E0,6.442064595E-1,1.152252316E-2,4.938529229E0
1.094920504E1,5.351296336E0,5.317300040E-1,1.638321121E-1,5.380144072E0
1.095921204E1,5.701986018E0,4.055313027E-1,2.303276718E-1,5.721027096E0
1.096921804E1,6.072073254E0,2.961784297E-1,2.773663290E-1,6.085616431E0
1.097922504E1,6.290258598E0,2.765241838E-1,4.101296993E-1,6.309677109E0
1.098923104E1,6.181793917E0,4.137834781E-1,6.356876510E-1,6.228153144E0
1.099923804E1,6.017597669E0,3.363195652E-1,9.287126774E-1,6.098122645E0
1.100924504E1,5.985209942E0,-2.925905782E-1,1.140439625E0,6.099913920E0
1.101925104E1,5.608478515E0,-9.611711562E-1,1.241120493E0,5.824024495E0
1.102925804E1,4.610704958E0,-1.172159747E0,1.237754397E0,4.915749651E0
1.103926504E1,3.592338678E0,-1.121261489E0,1.139988513E0,3.932136609E0
1.104927104E1,3.030399619E0,-9.230122268E-1,8.094499433E-1,3.269630351E0
1.105927804E1,2.895213162E0,-7.207488513E-1,3.823814450E-1,3.007981671E0
1.106928504E1,3.033735455E0,-3.798140788E-1,-4.724447921E-2,3.057783771E0
1.107929104E1,3.401491406E0,1.034150255E-1,-4.147196174E-1,3.428240192E0
1.108929804E1,4.031169289E0,3.604498547E-1,-8.767725916E-1,4.141132709E0
1.109930404E1,4.804378774E0,4.017955166E-1,-1.345053581E0,5.005263647E0
1.110931104E1,5.290250235E0,2.481432608E-1,-1.707792183E0,5.564609310E0
1.111931804E1,5.434991042E0,-4.178478777E-2,-1.786994034E0,5.721382811E0
1.112932404E1,5.353476178E0,-4.957427305E-1,-1.472844041E0,5.574471958E0
1.113933104E1,5.121463339E0,-1.003930967E0,-8.165654200E-1,5.282427775E0
1.114933804E1,4.734441982E0,-1.337042457E0,1.290305078E-1,4.921307985E0
1.115934404E1,4.086907872E0,-1.300082500E0,1.055967386E0,4.416797208E0
1.116935104E1,3.291528084E0,-8.947175503E-1,1.862367421E0,3.886269295E0
1.117935704E1,2.520935227E0,-3.719969362E-1,2.515033048E0,3.580347381E0
1.118936404E1,1.849508225E0,1.318722546E-1,2.922350675E0,3.460954266E0
1.119937104E1,1.355153039E0,5.470967790E-1,3.090224821E0,3.418368630E0
1.120937704E1,7.798443210E-1,7.871939787E-1,3.141482098E0,3.331177164E0
1.121938404E1,2.404427701E-1,7.587616003E-1,3.016166326E0,3.119421613E0
1.122939104E1,-3.336473876E-1,4.902904943E-1,2.770440012E0,2.833203701E0
1.123939704E1,-9.191589117E-1,1.116084364E-1,2.499030388E0,2.665044545E0
1.124940396E1,-1.409547347E0,-2.163399625E-1,2.241445190E0,2.656633817E0
1.125940996E1,-2.087583457E0,-6.226460212E-1,1.825647930E0,2.842302434E0
1.126941696E1,-2.930755463E0,-1.143147909E0,1.336332459E0,3.417879338E0
1.127942396E1,-3.907881331E0,-1.697698427E0,9.298195553E-1,4.360995397E0
1.128942996E1,-4.788084923E0,-2.229862294E0,5.579879491E-1,5.311251607E0
1.129943696E1,-5.564081191E0,-2.749274846E0,1.501405643E-1,6.208063617E0
1.130944396E1,-6.151389565E0,-3.227135914E0,-3.204608931E-1,6.953897826E0
1.131944996E1,-6.642845702E0,-3.619206634E0,-8.317057617E-1,7.610373851E0
1.132945696E1,-7.122629042E0,-3.909110416E0,-1.175757685E0,8.209469827E0
1.133946296E1,-7.530513849E0,-4.188972483E0,-1.416971557E0,8.732922631E0
1.134946996E1,-7.854066018E0,-4.414860072E0,-1.542190264E0,9.140880334E0
1.135947696E1,-8.103362058E0,-4.562407250E0,-1.465770079E0,9.414272063E0
1.136948296E1,-8.237550395E0,-4.748962373E0,-1.211476279E0,9.585278029E0
1.137948996E1,-8.071157933E0,-5.000913048E0,-8.640500736E-1,9.534112660E0
1.138949696E1,-7.359782753E0,-4.896525630E0,-2.903515331E-1,8.844584187E0
1.139950296E1,-6.812688020E0,-4.585787926E0,6.235222265E-2,8.212554826E0
1.140950996E1,-6.540022414E0,-4.554932169E0,-2.137701112E-1,7.972766013E0
1.141951596E1,-6.231908648E0,-4.734318898E0,-6.610471715E-1,7.854135483E0
1.142952296E1,-5.774578616E0,-5.093384424E0,-9.534140937E-1,7.758693287E0
1.143952996E1,-5.221364188E0,-5.670181258E0,-1.066676415E0,7.781477884E0
1.144953596E1,-4.540299219E0,-6.163207957E0,-9.530850416E-1,7.714131216E0
1.145954296E1,-3.822763998E0,-6.569097109E0,-6.231788488E-1,7.625936880E0
1.146954996E1,-2.950868715E0,-6.896400853E0,-1.620240068E-1,7.502947599E0
1.147955596E1,-1.893393332E0,-6.910511938E0,3.778926837E-1,7.175159681E0
1.148956296E1,-7.719032174E-1,-6.552060077E0,8.492595416E-1,6.651809348E0
1.149956896E1,2.406333894E-1,-6.062507794E0,1.004290425E0,6.149837757E0
1.150957596E1,1.148236449E0,-5.875574648E0,7.089943399E-1,6.028556823E0
1.151958296E1,1.753495774E0,-5.993218288E0,1.305906911E-1,6.245835958E0
1.152958896E1,2.038215415E0,-5.935590470E0,-3.803380624E-1,6.287305730E0
1.153959596E1,2.412230226E0,-5.796762367E0,-5.868821114E-1,6.306008184E0
1.154960296E1,3.029479267E0,-6.100548609E0,-8.031215018E-1,6.858530609E0
1.155960896E1,3.599334871E0,-6.586594902E0,-9.122733767E-1,7.561129984E0
1.156961596E1,3.858643683E0,-6.713429196E0,-4.990330318E-1,7.759400531E0
1.157962196E1,4.035088093E0,-6.604532990E0,3.742123731E-1,7.748666133E0
1.158962896E1,4.269448589E0,-6.320378190E0,1.452432727E0,7.764337225E0
1.159963596E1,4.355503816E0,-5.435363510E0,2.669950349E0,7.459371611E0
1.160964196E1,4.503025559E0,-3.837368296E0,3.748679191E0,7.003943910E0
1.161964896E1,4.980949484E0,-1.981910529E0,4.256266041E0,6.844970981E0
1.162965596E1,5.491773938E0,-4.439390311E-1,4.144238652E0,6.894300316E0
1.163966196E1,6.004476517E0,6.355987734E-1,3.606730430E0,7.033223190E0
1.164966896E1,6.236870010E0,1.353688311E0,3.034425427E0,7.066735968E0
1.165967496E1,5.787689828E0,1.807923412E0,2.460895432E0,6.543848022E0
1.166968196E1,4.829069812E0,2.153942338E0,1.884637127E0,5.613487325E0
1.167968896E1,3.877720224E0,2.356905041E0,1.702396372E0,4.846634803E0
1.168969496E1,3.133945037E0,2.373051542E0,1.801530651E0,4.324175968E0
1.169970196E1,2.466140385E0,2.363545724E0,2.017761270E0,3.967311096E0
1.170970896E1,1.745048302E0,2.490916207E0,2.159113031E0,3.729829246E0
1.171971496E1,9.328677088E-1,2.806130247E0,2.282182302E0,3.735366808E0
1.172972196E1,1.082945269E-1,3.153634951E0,2.289251586E0,3.898437371E0
1.173972796E1,-6.765380538E-1,3.585926036E0,2.078344857E0,4.199534095E0
1.174973496E1,-1.099371852E0,4.140579464E0,1.751649224E0,4.628314139E0
1.175974196E1,-1.129617160E0,4.790296925E0,1.446624395E0,5.129883205E0
1.176974796E1,-1.056221740E0,5.470028728E0,1.140171311E0,5.686546339E0
1.177975496E1,-9.981764299E-1,6.178514798E0,9.069796000E-1,6.324002949E0
1.178976196E1,-9.315690422E-1,6.820259580E0,6.056545242E-1,6.910179377E0
1.179976796E1,-7.188531840E-1,7.072963377E0,9.627199374E-2,7.110051274E0
1.180977496E1,-4.230717802E-1,7.111504129E0,-3.510079171E-1,7.132719486E0
1.181978096E1,-4.717574519E-1,7.195178955E0,-5.026775283E-1,7.228128387E0
1.182978796E1,-7.940360981E-1,7.184108421E0,-5.603376527E-1,7.249543808E0
1.183979496E1,-9.721650910E-1,7.013228222E0,-6.011709523E-1,7.105763968E0
1.184980096E1,-1.003702049E0,6.711603110E0,-7.442065649E-1,6.826922991E0
1.185980796E1,-7.853909898E-1,6.218084076E0,-8.890995455E-1,6.330237483E0
1.186981396E1,-3.445278865E-1,5.564446642E0,-8.600445847E-1,5.641049777E0
1.187982096E1,1.147942919E-1,4.957360062E0,-1.128921926E0,5.085573835E0
1.188982796E1,5.268136650E-1,4.526913773E0,-1.540220922E0,4.810692407E0
1.189983396E1,8.387368923E-1,4.173841935E0,-1.847346801E0,4.640810951E0
1.190984096E1,1.232374374E0,3.791365035E0,-2.111117916E0,4.511099010E0
1.191984796E1,1.758457721E0,3.349193909E0,-2.159025323E0,4.355532544E0
1.192985396E1,2.379140248E0,2.959366474E0,-1.963150177E0,4.274589671E0
1.193986096E1,3.016303736E0,2.707376037E0,-1.527108541E0,4.331285459E0
1.194986696E1,3.536375561E0,2.553488431E0,-1.058054111E0,4.488399913E0
1.195987396E1,3.944584889E0,2.323013409E0,-6.264227378E-1,4.620448754E0
1.196988096E1,4.144988850E0,1.859186536E0,-3.709514540E-1,4.557972370E0
1.197988696E1,4.250948583E0,1.336689870E0,-2.962491810E-1,4.465990063E0
1.198989396E1,4.311500595E0,8.617363304E-1,-2.998319162E-1,4.406986052E0
1.199989996E1,4.641032127E0,5.357628286E-1,-8.657124370E-2,4.672656160E0
1.200990696E1,5.190863357E0,3.010743034E-1,1.058527297E-1,5.200664662E0
1.201991396E1,5.678455653E0,2.052401930E-1,2.104806139E-1,5.686060519E0
1.202991996E1,6.108791429E0,3.294344687E-1,1.922823246E-1,6.120688874E0
1.203992696E1,6.415936897E0,4.743600476E-1,1.132981355E-1,6.434446378E0
1.204993396E1,6.750666604E0,2.885513216E-1,1.073269589E-1,6.757683075E0
1.205993996E1,6.788302792E0,-2.808312428E-1,5.184082925E-2,6.794307062E0
1.206994696E1,6.417685214E0,-8.599628699E-1,8.871673331E-2,6.475653659E0
1.207995296E1,6.075316120E0,-1.390881865E0,3.723612177E-1,6.243610429E0
1.208995996E1,5.786428583E0,-1.863031080E0,6.584005755E-1,6.114501768E0
1.209996696E1,5.695859306E0,-2.092929567E0,7.907230657E-1,6.119510632E0
1.210997296E1,5.816542329E0,-1.925527875E0,7.229800026E-1,6.169483150E0
1.211997996E1,6.294184418E0,-1.491643424E0,4.318475738E-1,6.482919861E0
1.212998596E1,6.932362399E0,-9.967929786E-1,9.419104278E-2,7.004292728E0
1.213999296E1,7.559672159E0,-6.115994614E-1,-1.554363875E-1,7.585964508E0
1.214999996E1,7.992199472E0,-2.965678543E-1,-4.178718513E-1,8.008609228E0
1.216000596E1,8.081368341E0,-2.532861793E-1,-6.447408950E-1,8.111002341E0
1.217001296E1,7.548963568E0,-3.874423563E-1,-5.695854628E-1,7.580329157E0
1.218001996E1,6.511883858E0,-6.472212839E-1,-1.592196822E-2,6.543988102E0
1.219002596E1,5.442479571E0,-1.018129469E0,7.445685075E-1,5.586730149E0
1.220003296E1,4.515146837E0,-1.489201042E0,1.382822648E0,4.951410827E0
1.221003896E1,3.428931220E0,-1.700129406E0,1.972293321E0,4.305572001E0
1.222004596E1,2.419929839E0,-1.623792837E0,2.663744699E0,3.948202050E0
1.223005296E1,1.488387110E0,-1.537815670E0,3.090186814E0,3.758913110E0
1.224005896E1,5.747953320E-1,-1.397848238E0,3.203443288E0,3.542092358E0
1.225006529E1,-3.304442829E-1,-1.141846027E0,3.142100734E0,3.359434892E0
1.226007129E1,-1.144324077E0,-9.017002952E-1,2.915598895E0,3.259333971E0
1.227007829E1,-1.879676934E0,-6.326473913E-1,2.674611749E0,3.329711114E0
1.228008529E1,-2.506989033E0,-4.312844869E-1,2.367437484E0,3.475019505E0
1.229009129E1,-3.222166657E0,-3.618914858E-1,1.930242485E0,3.773481081E0
1.230009829E1,-3.945909868E0,-4.897171748E-1,1.477756872E0,4.241909118E0
1.231010429E1,-4.654637429E0,-7.344959477E-1,1.006796395E0,4.818586190E0
1.232011129E1,-5.314434319E0,-9.838870043E-1,5.255440883E-1,5.430234098E0
1.233011829E1,-5.947410616E0,-1.189955163E0,1.940977389E-1,6.068390253E0
1.234012429E1,-6.481050321E0,-1.440291422E0,-8.407711387E-3,6.639165861E0
1.235013129E1,-6.752559932E0,-1.761174338E0,-1.110911040E-1,6.979336782E0
1.236013829E1,-6.878306644E0,-2.307921015E0,-4.014867836E-1,7.266277819E0
1.237014429E1,-7.089276524E0,-2.954955919E0,-7.734129685E-1,7.719311739E0
1.238015129E1,-7.339041510E0,-3.445474747E0,-1.092117212E0,8.180803537E0
1.239015729E1,-7.547362601E0,-3.918154597E0,-1.356467054E0,8.611307714E0
1.240016429E1,-7.540647073E0,-4.507256019E0,-1.481604339E0,8.909088984E0
1.241017129E1,-7.485806038E0,-5.003412732E0,-1.642336112E0,9.152524182E0
1.242017729E1,-7.376789380E0,-5.460409473E0,-1.805676765E0,9.353799322E0
1.243018429E1,-7.130856659E0,-5.943066720E0,-1.776795028E0,9.451251732E0
1.244019029E1,-6.865197771E0,-6.299847447E0,-1.474388729E0,9.433601667E0
1.245019729E1,-6.503815286E0,-6.324610405E0,-8.856527580E-1,9.115080408E0
1.246020429E1,-6.017167899E0,-6.292103979E0,-2.625076769E-1,8.710097146E0
1.247021029E1,-5.262436200E0,-6.397773691E0,3.053082722E-1,8.289629431E0
1.248021729E1,-4.445731031E0,-6.578993522E0,6.940166970E-1,7.970529427E0
1.249022329E1,-3.662714011E0,-6.762755138E0,1.036367080E0,7.760437340E0
1.250023029E1,-2.990927989E0,-6.990689544E0,1.201841529E0,7.698039595E0
1.251023729E1,-2.483221856E0,-7.155833625E0,1.237977760E0,7.674955022E0
1.252024329E1,-2.090247449E0,-7.066498695E0,1.319194416E0,7.486308310E0
1.253025029E1,-1.776785234E0,-6.853917907E0,1.388367562E0,7.215311562E0
1.254025629E1,-1.416887357E0,-6.589655335E0,1.339194233E0,6.872013417E0
1.255026329E1,-1.122566587E0,-6.341159195E0,1.188057742E0,6.548430107E0
1.256027029E1,-8.057498252E-1,-6.174159207E0,8.708036077E-1,6.287111707E0
1.257027629E1,-2.198307502E-1,-6.295719897E0,4.135630381E-1,6.313117215E0
1.258028329E1,3.924154133E-1,-6.509122218E0,-8.638442516E-2,6.521512415E0
1.259028929E1,1.132601579E0,-6.857875888E0,-6.730555252E-1,6.983283738E0
1.260029629E1,2.142126870E0,-7.322589199E0,-1.243554250E0,7.730164764E0
1.261030329E1,3.052865206E0,-7.618034388E0,-1.728359764E0,8.386993584E0
1.262030929E1,3.857812793E0,-7.735116695E0,-2.133213374E0,8.903108959E0
1.263031629E1,4.424736603E0,-7.504834632E0,-2.325235351E0,9.017070272E0
1.264032229E1,4.502771789E0,-6.298345882E0,-1.792641275E0,7.947180467E0
1.265032929E1,4.246732156E0,-4.452113560E0,-5.155081467E-1,6.174285206E0
1.266033629E1,4.388648173E0,-2.897343595E0,8.008597988E-1,5.319418118E0
1.267034229E1,5.027482796E0,-1.849431919E0,2.114339147E0,5.759028712E0
1.268034929E1,5.603296128E0,-1.055744607E0,3.198117059E0,6.537543644E0
1.269035529E1,5.748012961E0,-5.542894390E-1,3.787357353E0,6.905864573E0
1.270036229E1,5.280904630E0,-3.987324527E-1,4.108060175E0,6.702469670E0
1.271036929E1,4.395625656E0,-4.675962809E-1,4.553085326E0,6.345924454E0
1.272037529E1,3.367799165E0,-7.783436331E-1,4.879009711E0,5.979349947E0
1.273038229E1,2.200063421E0,-1.084933323E0,4.964112427E0,5.537126652E0
1.274038829E1,9.578914529E-1,-1.113727351E0,4.624927141E0,4.852617408E0
1.275039529E1,-2.659798998E-1,-6.370787036E-1,4.134270903E0,4.191516490E0
1.276040229E1,-1.312689389E0,3.441080564E-1,3.579955444E0,3.828530367E0
1.277040829E1,-1.889096798E0,1.465570689E0,2.922357692E0,3.775812315E0
1.278041529E1,-1.875503776E0,2.564060782E0,2.333315034E0,3.941608955E0
1.279042229E1,-1.520127550E0,3.563660424E0,1.682904679E0,4.224053923E0
1.280042829E1,-1.130356833E0,4.526392787E0,9.434786510E-1,4.759841404E0
1.281043529E1,-8.712456572E-1,5.459946958E0,9.083189048E-2,5.529768550E0
1.282044129E1,-8.328785670E-1,6.283358299E0,-6.756907191E-1,6.374232202E0
1.283044829E1,-7.917434049E-1,6.943834636E0,-1.113699285E0,7.077006653E0
1.284045529E1,-7.650888723E-1,7.385494130E0,-1.149146276E0,7.513416113E0
1.285046129E1,-7.962106776E-1,7.545773912E0,-8.404694223E-1,7.634071275E0
1.286046829E1,-8.711491781E-1,7.384050452E0,-2.970403093E-1,7.441191767E0
1.287047429E1,-9.411853731E-1,7.012438847E0,5.112629219E-1,7.093766156E0
1.288048129E1,-1.104460684E0,6.575101030E0,1.211687509E0,6.776427789E0
1.289048829E1,-1.267890946E0,6.285145792E0,1.744102807E0,6.644734734E0
1.290049429E1,-1.306597760E0,6.135518467E0,2.238811750E0,6.660635302E0
1.291050129E1,-1.189711334E0,6.030072119E0,2.563283687E0,6.659399829E0
1.292050729E1,-8.084641027E-1,5.881211364E0,2.581098983E0,6.473355643E0
1.293051429E1,-3.446138406E-1,5.723791455E0,2.245333149E0,6.158089661E0
1.294052129E1,2.232864547E-1,5.541469424E0,1.687142740E0,5.796912182E0
1.295052729E1,8.679618609E-1,5.183779455E0,1.188342501E0,5.388606975E0
1.296053429E1,1.569559327E0,4.561915206E0,7.957043818E-1,4.889553384E0
1.297054029E1,2.291218590E0,3.859043047E0,4.843909460E-1,4.514037046E0
1.298054729E1,2.905860942E0,3.261682726E0,4.830203587E-1,4.394986995E0
1.299055429E1,3.453915787E0,2.899295688E0,5.683270689E-1,4.545156258E0
1.300056029E1,3.897848679E0,2.667726653E0,6.218689994E-1,4.764106513E0
1.301056729E1,4.250500102E0,2.758183079E0,6.627778012E-1,5.110146713E0
1.302057329E1,4.860843582E0,2.913591546E0,7.863815081E-1,5.721469383E0
1.303058029E1,5.717575865E0,3.065089395E0,8.697739130E-1,6.545376493E0
1.304058629E1,6.603081712E0,3.129920399E0,8.242661300E-1,7.353672854E0
1.305059329E1,7.373156505E0,3.029602643E0,7.902710029E-1,8.010396824E0
1.306060029E1,7.721164069E0,2.861074194E0,7.557594936E-1,8.268814458E0
1.307060629E1,7.583966755E0,2.699526150E0,7.911457463E-1,8.088875371E0
1.308061329E1,7.437122705E0,2.312866736E0,1.005163195E0,7.853056712E0
1.309061929E1,7.631705178E0,1.393706655E0,1.415277033E0,7.885959120E0
1.310062629E1,7.877943124E0,1.561206579E-3,1.584585502E0,8.035726570E0
1.311063329E1,7.885283133E0,-1.395335104E0,1.698824893E0,8.186003675E0
1.312063929E1,7.504981397E0,-2.557560432E0,1.891612270E0,8.151322476E0
1.313064629E1,6.839843075E0,-3.276694867E0,2.090749725E0,7.867109822E0
1.314065229E1,6.208129191E0,-3.501160705E0,2.108031170E0,7.432549344E0
1.315065929E1,5.675480005E0,-2.993691968E0,1.960270423E0,6.709390808E0
1.316066629E1,5.466953092E0,-1.740498583E0,1.862748514E0,6.032142526E0
1.317067229E1,5.863803034E0,-6.490567249E-1,1.596283441E0,6.111757642E0
1.318067929E1,6.459889832E0,-7.881286561E-2,1.020440434E0,6.540465334E0
1.319068529E1,6.828874283E0,2.928911251E-1,5.583650945E-1,6.857921023E0
1.320069229E1,6.790041170E0,3.376158929E-1,3.249768439E-1,6.806192293E0
1.321069929E1,6.601850288E0,-1.727565712E-1,4.059047936E-1,6.616572433E0
1.322070529E1,6.079395137E0,-8.428153253E-1,8.860619169E-1,6.201168328E0
1.323071229E1,5.193747788E0,-1.289466003E0,1.442327861E0,5.542386518E0
1.324071829E1,4.143665625E0,-1.455604695E0,1.891889282E0,4.782049236E0
1.325072604E1,3.041176037E0,-1.346043661E0,2.332299957E0,4.062044844E0
1.326073304E1,2.006542218E0,-1.044126189E0,2.620210424E0,3.461490118E0
1.327073904E1,1.114602680E0,-5.760033667E-1,2.675095314E0,2.954700315E0
1.328074604E1,2.996347189E-1,-6.935791790E-2,2.520765073E0,2.539458218E0
1.329075204E1,-4.572458321E-1,3.344902638E-1,2.296616739E0,2.365461040E0
1.330075904E1,-1.167966709E0,5.769547087E-1,1.816836323E0,2.235602199E0
1.331076604E1,-1.838298528E0,6.088021535E-1,1.090927888E0,2.222634742E0
1.332077204E1,-2.497135305E0,4.130683637E-1,4.716646273E-1,2.574641281E0
1.333077904E1,-3.135699787E0,1.098691821E-1,1.167542785E-1,3.139795527E0
1.334078504E1,-3.735432909E0,-1.502421597E-1,-5.281263649E-2,3.738826139E0
1.335079204E1,-4.430673282E0,-3.723436761E-1,-1.087552875E-1,4.447621078E0
1.336079904E1,-5.014155237E0,-6.105811688E-1,-2.079278657E-1,5.055471897E0
1.337080504E1,-5.356750034E0,-8.215025166E-1,-2.453582320E-1,5.424927463E0
1.338081204E1,-5.393358867E0,-1.161029280E0,-1.146675535E-1,5.518102708E0
1.339081804E1,-5.434229735E0,-1.815425974E0,-3.209337866E-1,5.738433826E0
1.340082504E1,-5.618567886E0,-2.620100496E0,-7.816543266E-1,6.248537044E0
1.341083104E1,-6.084778084E0,-3.459331478E0,-1.289028046E0,7.117098560E0
1.342083804E1,-6.930073214E0,-4.164311851E0,-1.748637030E0,8.271948948E0
1.343084504E1,-7.947032654E0,-4.551526458E0,-1.871920018E0,9.347502643E0
1.344085104E1,-8.579029543E0,-4.908762099E0,-1.805045120E0,1.004758086E1
1.345085804E1,-8.748746731E0,-5.308154410E0,-2.053426070E0,1.043712754E1
1.346086404E1,-8.613747386E0,-5.563941443E0,-2.374351670E0,1.052576051E1
1.347087104E1,-7.964916948E0,-5.529176238E0,-2.218201192E0,9.946462104E0
1.348087804E1,-7.001331477E0,-5.567358556E0,-1.874461218E0,9.139350556E0
1.349088404E1,-6.118452784E0,-5.670177165E0,-1.556755094E0,8.485862359E0
1.350089104E1,-5.199993199E0,-5.787968155E0,-1.320640725E0,7.892059082E0
1.351089704E1,-4.321438522E0,-5.988523559E0,-1.249650265E0,7.489917964E0
1.352090404E1,-3.719591047E0,-6.417841335E0,-1.444441191E0,7.557145977E0
1.353091104E1,-3.366342623E0,-6.577380860E0,-1.541997891E0,7.547977155E0
1.354091704E1,-3.162965938E0,-6.288855266E0,-1.329346937E0,7.163882841E0
1.355092404E1,-3.135672889E0,-5.963196344E0,-1.100720805E0,6.826693299E0
1.356093104E1,-3.022693573E0,-5.765704297E0,-8.265284908E-1,6.562253563E0
1.357093704E1,-2.793010265E0,-5.762902311E0,-2.539422369E-1,6.409090111E0
1.358094404E1,-2.507686606E0,-6.051736053E0,2.358410114E-1,6.554969287E0
1.359095004E1,-2.254197528E0,-6.383925730E0,3.868827778E-1,6.781267765E0
1.360095704E1,-1.947074865E0,-6.631197463E0,1.728916419E-1,6.913303975E0
1.361096304E1,-1.611848729E0,-6.856614643E0,-1.445947726E-1,7.045007334E0
1.362097004E1,-1.020336208E0,-6.879179049E0,-3.698434067E-1,6.964264104E0
1.363097704E1,-3.841918892E-1,-6.771583849E0,-7.749958098E-1,6.826607483E0
1.364098304E1,3.464416802E-2,-6.382997192E0,-1.160155559E0,6.487666321E0
1.365099004E1,7.410322577E-1,-5.855875379E0,-1.587863012E0,6.112422941E0
1.366099704E1,1.619033203E0,-5.900337607E0,-1.983297781E0,6.431852181E0
1.367100304E1,2.027509748E0,-5.968955852E0,-2.100414587E0,6.644619717E0
1.368101004E1,2.212627918E0,-5.375450014E0,-1.708522354E0,6.058897077E0
1.369101604E1,2.573880011E0,-4.549609741E0,-9.854616594E-1,5.319298994E0
1.370102304E1,3.346984831E0,-3.856321169E0,3.622817874E-2,5.106352210E0
1.371102904E1,4.262749434E0,-3.219292751E0,1.128721293E0,5.459751854E0
1.372103604E1,5.139955743E0,-2.489534510E0,2.074197426E0,6.076118998E0
1.373104304E1,5.622255725E0,-1.829735280E0,2.633987634E0,6.472679622E0
1.374104904E1,5.632765510E0,-1.183152512E0,2.833187653E0,6.415204551E0
1.375105604E1,5.149777311E0,-6.856486005E-1,2.862265272E0,5.931516066E0
1.376106304E1,4.230421933E0,-4.779946768E-1,3.050367275E0,5.237336074E0
1.377106904E1,3.109928184E0,-3.387327111E-1,3.451555851E0,4.658286267E0
1.378107604E1,1.986619585E0,-5.214371502E-2,3.791032913E0,4.280339576E0
1.379108204E1,8.815776873E-1,6.216397154E-1,3.811842569E0,3.961534920E0
1.380108904E1,1.859706938E-2,1.763776934E0,3.726248687E0,4.122642866E0
1.381109604E1,-5.648322612E-1,3.123421218E0,3.527893006E0,4.745611093E0
1.382110204E1,-8.785821587E-1,4.300947540E0,3.128405970E0,5.390452695E0
1.383110904E1,-9.912211668E-1,5.267330319E0,2.716397122E0,6.008835279E0
1.384111504E1,-9.643438554E-1,6.081435816E0,2.221703820E0,6.545974986E0
1.385112204E1,-9.759932631E-1,6.599713131E0,1.660486892E0,6.875026762E0
1.386112904E1,-1.085073656E0,6.932229082E0,1.370358284E0,7.149200425E0
1.387113504E1,-1.217966250E0,7.118778065E0,1.212050037E0,7.323217068E0
1.388114204E1,-1.366714153E0,6.961428323E0,1.121282393E0,7.182385820E0
1.389114804E1,-1.511175463E0,6.544641130E0,1.177853035E0,6.819334027E0
1.390115504E1,-1.724992937E0,6.110719256E0,1.334869632E0,6.488325469E0
1.391116204E1,-1.782282202E0,5.763439085E0,1.494868748E0,6.215174375E0
1.392116804E1,-1.609896344E0,5.325313649E0,1.438747611E0,5.746366363E0
1.393117504E1,-1.285509192E0,4.772642426E0,1.198003855E0,5.085849275E0
1.394118104E1,-8.106071073E-1,4.258517804E0,8.942414407E-1,4.426254119E0
1.395118804E1,-2.641216546E-1,3.735413613E0,5.306032455E-1,3.782144221E0
1.396119504E1,1.223559111E-1,3.170410613E0,1.216538067E-1,3.175102214E0
1.397120104E1,2.730848515E-1,2.644523147E0,-1.364791296E-1,2.662086505E0
1.398120804E1,2.596906346E-1,2.244300531E0,-4.832314432E-2,2.259791855E0
1.399121404E1,3.219430161E-1,2.064558876E0,2.210620277E-1,2.101170883E0
1.400122104E1,6.752838260E-1,1.867951512E0,3.378437881E-1,2.014792675E0
1.401122804E1,1.447820297E0,1.569297372E0,3.371525010E-1,2.161608119E0
1.402123404E1,2.371110266E0,1.293164951E0,2.488776711E-1,2.712264659E0
1.403124104E1,3.086401911E0,1.135854385E0,2.324706763E-2,3.288857304E0
1.404124704E1,3.453408249E0,1.114895040E0,-2.916300268E-1,3.640613624E0
1.405125404E1,3.556741413E0,1.209473169E0,-6.788319165E-1,3.817597098E0
1.406126104E1,3.656400772E0,1.369251260E0,-9.809231968E-1,4.025708129E0
1.407126704E1,4.030780449E0,1.462783906E0,-1.130544821E0,4.434530344E0
1.408127404E1,4.749417286E0,1.471734824E0,-1.049609123E0,5.081795673E0
1.409128004E1,5.573285294E0,1.419153153E0,-9.203279163E-1,5.824303229E0
1.410128704E1,6.347521550E0,1.429271175E0,-6.888805027E-1,6.542813024E0
1.411129404E1,7.086942900E0,1.344055608E0,-4.852558954E-1,7.229572493E0
1.412130004E1,7.765988824E0,9.298370969E-1,-4.434769548E-1,7.834018845E0
1.413130704E1,8.285545510E0,8.566404819E-2,-3.618292129E-1,8.293884681E0
1.414131304E1,8.621093827E0,-1.098507634E0,-3.389736164E-1,8.697406563E0
1.415132004E1,8.637677701E0,-2.298099008E0,5.979947448E-3,8.938163730E0
1.416132704E1,8.175128444E0,-3.098924893E0,8.344448899E-1,8.782502994E0
1.417133304E1,7.326645412E0,-3.102496957E0,1.774129429E0,8.151855960E0
1.418134004E1,6.485182548E0,-2.354980722E0,2.575951679E0,7.364716827E0
1.419134604E1,6.144978678E0,-1.228576607E0,3.023227716E0,6.957734491E0
1.420135304E1,6.334140782E0,-1.158234018E-1,2.790815805E0,6.922673426E0
1.421136004E1,6.734627107E0,5.392296427E-1,2.156857468E0,7.092108643E0
1.422136604E1,7.151649358E0,9.815229750E-1,1.629229578E0,7.400261137E0
1.423137304E1,7.428004557E0,1.102526425E0,1.311728399E0,7.623086488E0
1.424137904E1,7.085891570E0,7.878468204E-1,1.401160685E0,7.265935124E0
1.425138542E1,6.268009942E0,2.237273347E-1,1.758829020E0,6.513945201E0
1.426139242E1,5.305258284E0,-4.563933080E-1,1.832047269E0,5.631203913E0
1.427139842E1,4.343036383E0,-9.922017449E-1,1.692506099E0,4.765606595E0
1.428140542E1,3.443392553E0,-1.222612447E0,1.753108689E0,4.052792068E0
1.429141142E1,2.571436459E0,-1.121162671E0,2.036661664E0,3.466595150E0
1.430141842E1,1.851110362E0,-6.579281205E-1,2.407758275E0,3.107535824E0
1.431142542E1,1.278495457E0,-3.956459999E-2,2.667777523E0,2.958572782E0
1.432143142E1,7.206868708E-1,6.476358515E-1,2.639773453E0,2.811978956E0
1.433143842E1,2.746197456E-1,1.151722559E0,2.500593056E0,2.766739325E0
1.434144442E1,-1.544939625E-1,1.460523958E0,2.196510068E0,2.642282175E0
1.435145142E1,-6.609733504E-1,1.571695315E0,1.876884304E0,2.535706336E0
1.436145842E1,-1.219757836E0,1.466644238E0,1.628735780E0,2.508313127E0
1.437146442E1,-1.835086652E0,1.193751760E0,1.398201702E0,2.597605491E0
1.438147142E1,-2.505712586E0,7.983481273E-1,1.141927303E0,2.867046086E0
1.439147742E1,-3.153589928E0,3.669329551E-1,8.389430067E-1,3.283838393E0
1.440148442E1,-3.701437197E0,-2.133052576E-1,5.195946926E-1,3.743810238E0
1.441149142E1,-4.204184892E0,-8.520416468E-1,1.951502377E-1,4.294092359E0
1.442149742E1,-4.650666000E0,-1.447719432E0,-5.747082084E-2,4.871128072E0
1.443150442E1,-5.076918665E0,-1.960583687E0,-1.850159897E-1,5.445477247E0
1.444151042E1,-5.355178887E0,-2.420644954E0,-2.552046508E-1,5.882396818E0
1.445151742E1,-5.316227660E0,-2.836886601E0,-3.375926502E-1,6.035244065E0
1.446152342E1,-5.037485043E0,-3.294243823E0,-3.428376026E-1,6.028750745E0
1.447153042E1,-4.685854543E0,-3.825437930E0,-1.471960527E-1,6.050857364E0
1.448153742E1,-4.661565794E0,-4.422305916E0,-1.422759131E-1,6.427069916E0
1.449154342E1,-5.071143955E0,-5.004976863E0,-5.780446297E-1,7.148456477E0
1.450155042E1,-5.602341862E0,-5.460989517E0,-1.116652129E0,7.902882564E0
1.451155642E1,-6.100174388E0,-5.770675015E0,-1.393430666E0,8.512018956E0
1.452156342E1,-6.228771617E0,-5.937531745E0,-1.356496729E0,8.711599305E0
1.453157042E1,-5.982083436E0,-6.094715427E0,-1.049000428E0,8.604143204E0
1.454157642E1,-5.448743693E0,-6.362839501E0,-6.525516788E-1,8.402401921E0
1.455158342E1,-4.809407964E0,-6.664573370E0,-1.519803907E-1,8.220099830E0
1.456158942E1,-4.307908650E0,-6.794086858E0,3.022110021E-1,8.050405248E0
1.457159642E1,-4.109180501E0,-6.957125357E0,5.429530766E-1,8.098256335E0
1.458160342E1,-3.972269701E0,-7.121643786E0,8.914208901E-1,8.203131597E0
1.459160942E1,-3.773603532E0,-7.203500127E0,1.361483234E0,8.245249196E0
1.460161642E1,-3.597811671E0,-7.298153100E0,1.510897136E0,8.275874434E0
1.461162242E1,-3.578459727E0,-7.201612061E0,1.358764864E0,8.155662588E0
1.462162942E1,-3.585461183E0,-6.948693087E0,1.263980328E0,7.920701597E0
1.463163642E1,-3.419857510E0,-6.840783892E0,1.188981017E0,7.739859527E0
1.464164242E1,-2.976700544E0,-7.015334973E0,9.578131002E-1,7.680695076E0
1.465164942E1,-2.402596353E0,-7.003832331E0,6.543589801E-1,7.433325113E0
1.466165542E1,-2.026949000E0,-6.668702089E0,3.101047432E-1,6.976838450E0
1.467166242E1,-1.529418191E0,-6.422892745E0,-1.191942851E-1,6.603550446E0
1.468166942E1,-9.362064689E-1,-6.646622418E0,-7.381899261E-1,6.752702902E0
1.469167542E1,-2.595573181E-1,-7.023266137E0,-1.161363448E0,7.123370149E0
1.470168242E1,4.741138798E-1,-7.134200681E0,-1.041975583E0,7.225463061E0
1.471168842E1,9.548257577E-1,-7.008201370E0,-6.073117347E-1,7.098972194E0
1.472169542E1,1.188927222E0,-6.406008909E0,-2.076114217E-2,6.515437753E0
1.473170142E1,1.514817109E0,-5.326508235E0,6.314022267E-1,5.573601136E0
1.474170842E1,2.217247803E0,-4.301428181E0,1.123701532E0,4.968015434E0
1.475171542E1,3.251561780E0,-3.548304758E0,1.352375026E0,4.999203825E0
1.476172142E1,4.396407428E0,-2.842596115E0,1.374289806E0,5.412709434E0
1.477172842E1,5.235490476E0,-2.110540211E0,1.267996781E0,5.785547195E0
1.478173442E1,5.634134928E0,-1.479425082E0,1.048560133E0,5.918754372E0
1.479174142E1,5.510953390E0,-9.650443518E-1,9.122860944E-1,5.668702125E0
1.480174842E1,4.982092030E0,-5.810629624E-1,8.941673273E-1,5.094939683E0
1.481175442E1,4.250387251E0,-3.594569975E-1,1.120820609E0,4.410355989E0
1.482176142E1,3.384918058E0,-1.511996412E-1,1.700755643E0,3.791187327E0
1.483176742E1,2.505714340E0,1.406500947E-1,2.393319161E0,3.467904758E0
1.484177442E1,1.553762489E0,6.355040485E-1,2.930230383E0,3.377024336E0
1.485178042E1,4.762182927E-1,1.299202786E0,3.455145457E0,3.721927171E0
1.486178742E1,-4.380605328E-1,2.042096797E0,4.133823007E0,4.631473741E0
1.487179442E1,-1.107051001E0,2.677843505E0,4.675693252E0,5.500774049E0
1.488180042E1,-1.422677854E0,3.359068102E0,4.733665472E0,5.976197754E0
1.489180742E1,-1.479366610E0,4.057943689E0,4.171130581E0,6.004478569E0
1.490181342E1,-1.379086862E0,4.599006434E0,3.230675526E0,5.787054960E0
1.491182042E1,-1.469549720E0,5.022768186E0,2.236721370E0,5.691282730E0
1.492182742E1,-1.725471824E0,5.378934370E0,1.378309620E0,5.814630288E0
1.493183342E1,-1.962457135E0,5.476201633E0,8.660333761E-1,5.881329454E0
1.494184042E1,-2.178661442E0,5.455867941E0,8.256052154E-1,5.932510821E0
1.495184642E1,-2.095989414E0,5.438337988E0,8.729249775E-1,5.893274957E0
1.496185342E1,-1.656772302E0,5.292169876E0,9.875685574E-1,5.632694570E0
1.497185942E1,-1.004575038E0,5.081254960E0,1.264206616E0,5.331654654E0
1.498186642E1,-3.636816108E-1,4.854214593E0,1.484704387E0,5.089205316E0
1.499187342E1,3.604030770E-1,4.677542726E0,1.431029286E0,4.904807963E0
1.500187942E1,1.077890936E0,4.486742817E0,8.188002259E-1,4.686485227E0
1.501188642E1,1.533240516E0,4.379248189E0,-1.882399982E-1,4.643713544E0
1.502189242E1,1.588592014E0,4.424887462E0,-1.139830784E0,4.837609725E0
1.503189942E1,1.465147936E0,4.661764015E0,-2.144203654E0,5.336320035E0
1.504190642E1,1.564304434E0,4.707496843E0,-2.676014788E0,5.636366741E0
1.505191242E1,2.246938210E0,4.327348303E0,-2.597873476E0,5.524818662E0
1.506191942E1,3.326214936E0,3.612501047E0,-2.136645397E0,5.355289270E0
1.507192542E1,4.320142779E0,2.799046930E0,-1.715445749E0,5.425960880E0
1.508193242E1,4.936515908E0,2.223793761E0,-1.427902049E0,5.599406420E0
1.509193842E1,5.050717877E0,1.736425998E0,-1.293007076E0,5.495160927E0
1.510194542E1,4.746084373E0,1.410363618E0,-1.395400593E0,5.144082545E0
1.511195242E1,4.656906148E0,1.339538634E0,-1.591726414E0,5.100463861E0
1.512195842E1,5.143882148E0,1.298142686E0,-1.701718972E0,5.571404262E0
1.513196542E1,5.900453966E0,1.529481926E0,-1.624631035E0,6.308256334E0
1.514197142E1,6.739716523E0,2.117344031E0,-1.513666962E0,7.224826104E0
1.515197842E1,7.324033461E0,2.602499208E0,-1.472152900E0,7.910859778E0
1.516198442E1,7.617778280E0,2.758737980E0,-8.421776864E-1,8.145578212E0
1.517199142E1,7.922919322E0,2.378033955E0,4.775415176E-1,8.285876053E0
1.518199842E1,8.324990242E0,1.339338074E0,1.679231896E0,8.597622274E0
1.519200442E1,8.409262068E0,7.592083275E-2,2.816782120E0,8.868805670E0
1.520201142E1,7.881967177E0,-9.011968499E-1,3.655668116E0,8.735071363E0
1.521201742E1,6.854977423E0,-1.529391879E0,3.818245854E0,7.994295241E0
1.522202442E1,5.892443866E0,-1.798213525E0,3.546024637E0,7.108358271E0
1.523203142E1,5.244567693E0,-1.655777691E0,3.177323191E0,6.351572460E0
1.524203742E1,5.188620949E0,-1.074719991E0,2.782018376E0,5.984683506E0
1.525204479E1,5.587385854E0,-4.601384497E-1,2.166501573E0,6.010352497E0
1.526205079E1,6.116927830E0,1.359232056E-1,1.576923310E0,6.318383363E0
1.527205779E1,6.569996996E0,7.432922065E-1,1.212789417E0,6.722217045E0
1.528206379E1,7.003013721E0,1.043894640E0,8.870680766E-1,7.135741514E0
1.529207079E1,7.184055212E0,1.079615280E0,6.440345514E-1,7.293215953E0
1.530207779E1,7.031169233E0,1.011832017E0,5.136623999E-1,7.122148123E0
1.531208379E1,6.595148794E0,8.693938440E-1,4.865836519E-1,6.669977280E0
1.532209079E1,6.040973668E0,5.374784017E-1,7.402667110E-1,6.109847845E0
1.533209679E1,5.269737618E0,2.328068912E-2,1.448268925E0,5.465176981E0
1.534210379E1,3.907370285E0,-2.707506430E-1,2.527609824E0,4.661508326E0
1.535210979E1,1.989015189E0,2.734742761E-1,3.332690143E0,3.890731704E0
1.536211679E1,1.291875640E0,7.427162558E-1,3.665314853E0,3.956653014E0
1.537212279E1,1.260379613E0,6.960157138E-1,3.312453514E0,3.611833735E0
1.538212979E1,1.883300453E0,7.726195014E-1,3.052508526E0,3.669001198E0
1.539213679E1,1.848883157E0,9.379848996E-1,3.016940498E0,3.660616692E0
1.540214279E1,1.166627696E0,8.890431198E-1,2.793693219E0,3.155335110E0
1.541214979E1,6.188400686E-2,5.015744510E-1,2.434245577E0,2.486153272E0
1.542215579E1,-1.039644883E0,-1.455930385E-1,2.051373405E0,2.304385311E0
1.543216279E1,-1.935408500E0,-1.060908868E0,1.702427216E0,2.787398808E0
1.544216979E1,-3.151998900E0,-2.147491398E0,9.489849740E-1,3.930316635E0
1.545217579E1,-4.706355466E0,-3.123888996E0,-1.401402175E-1,5.650495864E0
1.546218279E1,-6.291872429E0,-3.714610681E0,-1.090982267E0,7.387572909E0
1.547218879E1,-7.514532824E0,-4.046614124E0,-1.963438444E0,8.757761127E0
1.548219579E1,-8.066457356E0,-4.207482721E0,-2.491814339E0,9.432909616E0
1.549220179E1,-8.187438587E0,-4.451040011E0,-2.669559462E0,9.693939112E0
1.550220879E1,-7.876781282E0,-4.660446053E0,-2.532580250E0,9.496178362E0
1.551221479E1,-7.381870025E0,-4.912065775E0,-2.284969378E0,9.156499348E0
1.552222179E1,-6.965811396E0,-5.119043176E0,-1.996653991E0,8.872077468E0
1.553222879E1,-6.632841700E0,-5.350736758E0,-1.869928164E0,8.724769579E0
1.554223479E1,-6.441663476E0,-5.524855145E0,-1.894898698E0,8.695383476E0
1.555224179E1,-6.368049370E0,-5.633297022E0,-1.773173117E0,8.685057917E0
1.556224779E1,-6.342176610E0,-5.837629142E0,-1.556756556E0,8.759258481E0
1.557225479E1,-6.256694995E0,-6.033392168E0,-1.245702517E0,8.780650778E0
1.558226079E1,-6.070237228E0,-6.200207968E0,-9.401540704E-1,8.727786004E0
1.559226779E1,-5.587840768E0,-6.402020524E0,-6.212271944E-1,8.520314223E0
1.560227479E1,-4.931465083E0,-6.560439137E0,-3.460116175E-1,8.214525767E0
1.561228079E1,-4.258514296E0,-6.725196717E0,-1.817688847E-1,7.962176513E0
1.562228779E1,-3.600345855E0,-7.073193172E0,5.535325170E-2,7.936977757E0
1.563229379E1,-3.181094061E0,-7.396551214E0,3.998090713E-1,8.061524458E0
1.564230079E1,-2.993557482E0,-7.382709686E0,8.701836567E-1,8.013925898E0
1.565230679E1,-2.790424626E0,-7.283235099E0,1.417642086E0,7.927275205E0
1.566231379E1,-2.507581941E0,-7.208832203E0,1.863031519E0,7.856596933E0
1.567232079E1,-2.187670832E0,-7.047407536E0,2.061001284E0,7.661565306E0
1.568232679E1,-1.720926783E0,-6.787364899E0,2.024980828E0,7.289064317E0
1.569233379E1,-1.172559112E0,-6.746857143E0,1.578359825E0,7.027531282E0
1.570233979E1,-4.465892816E-1,-6.800384309E0,1.309330748E0,6.939669715E0
1.571234679E1,7.131088793E-2,-6.780207907E0,9.857692230E-1,6.851864379E0
1.572235279E1,4.017586792E-1,-6.696212654E0,2.671967053E-1,6.713573417E0
1.573235979E1,6.980417740E-1,-6.568029993E0,-4.572399849E-1,6.620826890E0
1.574236679E1,1.055454585E0,-6.224693769E0,-8.936229515E-1,6.376469154E0
1.575237279E1,1.579667993E0,-5.845962009E0,-9.756992944E-1,6.133727407E0
1.576237979E1,2.061918274E0,-5.514118488E0,-9.420121694E-1,5.961912159E0
1.577238579E1,2.375110931E0,-4.754654929E0,-5.122166759E-1,5.339500104E0
1.578239279E1,2.735476002E0,-3.762986743E0,3.768648894E-1,4.667432413E0
1.579239879E1,3.417948979E0,-2.933076515E0,1.365441653E0,4.706351450E0
1.580240579E1,4.206743048E0,-2.331105079E0,1.981410885E0,5.201608122E0
1.581241179E1,4.881029924E0,-1.829228911E0,2.251153029E0,5.677871211E0
1.582241879E1,5.250368131E0,-1.300547646E0,2.321167297E0,5.886051929E0
1.583242579E1,5.481665272E0,-8.613828662E-1,2.363027514E0,6.031130377E0
1.584243179E1,5.314094011E0,-5.210372007E-1,2.120902792E0,5.745372362E0
1.585243879E1,4.431959669E0,-1.951040447E-1,1.748405919E0,4.768359818E0
1.586244479E1,3.285867979E0,6.143786430E-2,1.518356429E0,3.620236074E0
1.587245179E1,2.035819811E0,4.086946464E-1,1.720328613E0,2.696502207E0
1.588245779E1,8.283159846E-1,8.484052634E-1,2.262506422E0,2.554375495E0
1.589246479E1,-1.845714551E-1,1.517775800E0,3.033945370E0,3.397430575E0
1.590247179E1,-1.071735572E0,2.383759548E0,4.028795319E0,4.802303452E0
1.591247779E1,-1.620884432E0,3.222444400E0,4.793515817E0,5.999100611E0
1.592248479E1,-1.341160651E0,4.088610581E0,5.336199410E0,6.854959702E0
1.593249079E1,-6.696827781E-1,4.413073162E0,5.161569976E0,6.823891439E0
1.594249779E1,-4.082064039E-1,4.394352132E0,4.578042997E0,6.358886758E0
1.595250379E1,-4.098769534E-1,4.843750416E0,3.733300429E0,6.129229095E0
1.596251079E1,-8.888551319E-1,5.407575202E0,2.657332642E0,6.090431001E0
1.597251679E1,-1.412270980E0,5.680472358E0,1.188403312E0,5.972819934E0
1.598252379E1,-1.733542151E0,5.754323276E0,-3.785814492E-1,6.021688191E0
1.599253079E1,-2.023488033E0,5.936496788E0,-1.431434644E0,6.433156541E0
1.600253679E1,-2.229339845E0,6.133015274E0,-1.676181550E0,6.737463699E0
1.601254379E1,-2.181378059E0,6.135398600E0,-1.493709830E0,6.680770559E0
1.602254979E1,-1.800298058E0,5.871492122E0,-1.061100072E0,6.232289002E0
1.603255679E1,-1.314009690E0,5.500304441E0,-5.220989820E-1,5.679133539E0
1.604256279E1,-8.797469240E-1,5.161090504E0,-1.865500798E-1,5.238855865E0
1.605256979E1,-3.143843204E-1,4.829662719E0,-2.252826941E-1,4.845124537E0
1.606257679E1,2.851084810E-1,4.477742198E0,-6.553641164E-1,4.534419937E0
1.607258279E1,8.586899310E-1,4.179521336E0,-1.174648322E0,4.425555974E0
1.608258979E1,1.584246948E0,4.174927179E0,-1.457499193E0,4.697250178E0
1.609259579E1,2.459548818E0,4.294426725E0,-1.588589090E0,5.197604889E0
1.610260279E1,3.682467075E0,4.464284831E0,-1.539636785E0,5.988395799E0
1.611260879E1,4.975655415E0,4.587518994E0,-1.317026854E0,6.894710804E0
1.612261579E1,6.001785044E0,4.406284545E0,-1.118402858E0,7.529116293E0
1.613262179E1,6.767175633E0,4.021868708E0,-8.107199585E-1,7.913745055E0
1.614262879E1,7.362271913E0,3.693172157E0,-3.980071056E-1,8.246270548E0
1.615263579E1,7.690928117E0,3.410866247E0,1.108186968E-1,8.414075388E0
1.616264179E1,7.877175969E0,3.043041299E0,4.398321661E-1,8.455971495E0
1.617264879E1,7.872001768E0,2.561254703E0,3.600492474E-1,8.286016712E0
1.618265479E1,7.721459938E0,2.131072124E0,2.860416236E-1,8.015249952E0
1.619266179E1,7.555867376E0,1.800048966E0,5.283233430E-1,7.785270299E0
1.620266779E1,7.418450791E0,1.248391067E0,6.774852296E-1,7.553203204E0
1.621267479E1,7.216727698E0,4.210410422E-1,5.202226835E-1,7.247693831E0
1.622268079E1,7.019574205E0,-3.760549039E-1,4.860574025E-1,7.046423994E0
1.623268779E1,6.765598054E0,-1.029760165E0,5.281427372E-1,6.863866095E0
1.624269479E1,6.469296833E0,-1.399204792E0,5.388892617E-1,6.640781369E0
1.625270017E1,6.196966857E0,-1.358859589E0,4.865210867E-1,6.362829589E0
1.626270717E1,6.052051803E0,-9.716487819E-1,4.527768052E-1,6.146254080E0
1.627271317E1,6.250673532E0,-4.661423707E-1,4.240582055E-1,6.282358926E0
1.628272017E1,6.714611503E0,-4.168363094E-2,2.414783851E-1,6.719081557E0
1.629272617E1,7.190058548E0,2.440990341E-1,-9.379116632E-2,7.194812231E0
1.630273317E1,7.563289247E0,2.473880929E-1,-4.831104789E-1,7.582739665E0
1.631273917E1,7.862932152E0,-1.305069298E-1,-8.703281560E-1,7.912029144E0
1.632274617E1,8.074924124E0,-7.167359072E-1,-1.107473170E0,8.181968394E0
1.633275317E1,8.146042639E0,-1.354108141E0,-1.033263890E0,8.322214477E0
1.634275917E1,7.927519911E0,-1.955070933E0,-5.540529191E-1,8.183816281E0
1.635276617E1,7.342173278E0,-2.234774247E0,3.268418864E-1,7.681702286E0
1.636277217E1,6.400155846E0,-2.047370401E0,1.380421781E0,6.859977020E0
1.637277917E1,5.244817370E0,-1.548273123E0,2.343178702E0,5.949432354E0
1.638278517E1,4.106327645E0,-9.851733917E-1,3.314710540E0,5.368407520E0
1.639279217E1,3.038952926E0,-4.400646660E-1,4.168494657E0,5.177377666E0
1.640279817E1,1.933445590E0,-2.503751430E-1,4.472052857E0,4.878540388E0
1.641280517E1,8.935516155E-1,-3.917742661E-1,4.490625953E0,4.595393674E0
1.642281217E1,-1.902526098E-1,-6.345164537E-1,4.575729838E0,4.623430624E0
1.643281817E1,-1.146246057E0,-9.048510674E-1,4.782289748E0,5.000293062E0
1.644282517E1,-2.012356689E0,-1.272505569E0,4.829117174E0,5.384164053E0
1.645283117E1,-2.789182677E0,-1.563769121E0,4.664925604E0,5.655655998E0
1.646283817E1,-3.472819251E0,-1.913021558E0,4.310672629E0,5.856792940E0
1.647284417E1,-4.182794023E0,-2.338838021E0,3.741160841E0,6.079655711E0
1.648285117E1,-4.950219442E0,-2.588381983E0,3.052913738E0,6.365899473E0
1.649285717E1,-5.717544290E0,-2.795533631E0,2.169294788E0,6.723924513E0
1.650286417E1,-6.427774585E0,-2.991147260E0,1.536499316E0,7.254245529E0
1.651287117E1,-7.152261561E0,-3.075674610E0,9.094120418E-1,7.838472428E0
1.652287717E1,-8.152784479E0,-2.995686161E0,3.477245593E-1,8.692694789E0
1.653288417E1,-9.066982028E0,-2.808244893E0,-3.546336293E-2,9.491978725E0
1.654289017E1,-9.748277376E0,-3.031711734E0,-3.319591503E-1,1.021422463E1
1.655289717E1,-9.941584572E0,-3.516276342E0,-8.433971232E-1,1.057878168E1
1.656290317E1,-9.571678600E0,-3.935700045E0,-1.379209507E0,1.044073680E1
1.657291017E1,-8.804317499E0,-4.204445970E0,-1.733842698E0,9.909570275E0
1.658291617E1,-7.783305354E0,-4.385807011E0,-1.784403571E0,9.110391949E0
