Time (s),Linear Acceleration x (m/s^2),Linear Acceleration y (m/s^2),Linear Acceleration z (m/s^2),Absolute acceleration (m/s^2)
-0.001522583333,-0.2907076286,0.1847304994,-0.7814961594,0.8540330965
0.008484416667,-0.3265815026,0.1442087102,-1.14037896,1.19495431
0.01849041667,-0.3735797775,-0.3037923816,-1.735858233,1.801403749
0.02849641667,-0.3660628529,-0.5782843655,-1.322975811,1.489523352
0.03850341667,-0.2892404525,-0.1001519868,0.3372276378,0.4554261076
0.04850941667,-0.1018530514,0.3908305255,2.298304245,2.333522005
0.05851541667,-0.1638941657,0.7558148959,2.460492559,2.579174497
0.06852141667,-1.208480019,0.8249523738,1.739105777,2.272764677
0.07852841667,-1.793193545,0.6195198074,0.6928821909,2.019760781
0.08853441667,-1.279025214,0.2022815019,-0.530175814,1.399253265
0.09854041667,-0.990980627,-0.2309901613,-0.9660635215,1.403095786
0.1085474167,-1.054468744,-0.4904480767,-0.6185664189,1.317219824
0.1185534167,-0.7334048572,-0.4605416152,-0.5184930772,1.009364322
0.1285594167,-0.09581214678,-0.2712184203,-0.4287704766,0.5163172673
0.1385654167,0.3028623088,-0.0936019358,-0.1431497794,0.3478200107
0.1485724167,0.2023575888,-0.1262966421,0.1008586228,0.2589824267
0.1585784167,-0.279811598,-0.1385480207,0.1955887789,0.3684359576
0.1685844167,-0.5710310042,-0.4121354404,0.04383949935,0.7055876492
0.1785914167,-0.2154399298,-0.6974854115,-0.1436204803,0.7439940221
0.1885974167,0.3115261648,-0.4639072725,-0.08128565311,0.5646820931
0.1986034167,0.6942372832,-0.1725963575,-0.1312337387,0.7273081892
0.2086104167,0.8559934875,-0.1675519645,-0.3419451714,0.9368697944
0.2186164167,0.7795094217,-0.2044247988,-0.815794757,1.146710741
0.2286224167,0.698234586,-0.1323426631,-1.407011994,1.576302277
0.2386284167,0.7967066677,-0.1253575793,-1.859517488,2.026884636
0.2486354167,0.5849848361,-0.2114373645,-2.221182979,2.306635395
0.2586414167,-0.07293275937,-0.1557569611,-2.048550954,2.055757872
0.2686474167,-0.2764248176,0.4552671343,-2.133988715,2.199451449
0.2786544167,-0.62995928,0.975321418,-1.44985162,1.8574634
0.2886604167,-0.4540941098,1.260986846,-0.6768766075,1.50148301
0.2986664167,0.8104226276,1.966766533,0.6436498046,2.222440214
0.3086724167,-0.1327445313,2.220502656,1.10618035,2.484328505
0.3186794167,-3.303920088,1.603779572,0.8229038018,3.763664109
0.3286854167,-2.459709325,2.668616306,0.16016927,3.632813943
0.3386914167,-1.550142916,2.015074475,1.140122268,2.786278339
0.3486984167,-1.730205876,-0.3156940967,1.064055839,2.05559966
0.3587044167,-1.786304209,-0.8918261021,0.5284982479,2.065320053
0.3687104167,-0.5495123735,-1.254686179,-0.5403102082,1.472459296
0.3787164167,0.6256104865,-1.635147252,-0.9645438302,1.998859629
0.3887234167,1.96209607,-1.281489962,-0.2728334212,2.359337955
0.3987294167,2.69862334,-1.214205759,-0.2946920675,2.973837079
0.4087354167,2.80439684,-1.596372611,-0.8255186766,3.330844973
0.4187424167,2.457738521,-1.955838233,-0.657460928,3.209055422
0.4287484167,2.311468667,-2.565290451,-0.8944152492,3.567012915
0.4387544167,2.002734219,-2.832205905,-0.9985933363,3.609643098
0.4487614167,1.246165909,-1.742330955,-0.6970728904,2.252677794
0.4587674167,0.1001541064,0.190243839,0.01309250057,0.2153949324
0.4687734167,-0.3085258488,1.104273281,0.9823556185,1.509844442
0.4787794167,-0.03276443437,0.427447544,1.61970154,1.675475452
0.4887864167,0.9119318993,-0.04315201297,2.104094825,2.293620918
0.4987924167,2.22029508,0.06096891761,1.608336892,2.742293749
0.5087984167,2.661802254,0.3496839613,0.4258293271,2.718234855
0.5188054167,2.220667693,0.3773711121,0.0342775476,2.252764726
0.5288114167,0.8596044356,0.6177057087,-0.09295669556,1.06260109
0.5388174167,-0.6351143315,0.4843649259,-1.183054279,1.427444228
0.5488225417,-2.834129055,-0.8232996583,-4.384222416,5.285027532
0.5588295417,-4.329563521,-1.994656582,-6.33882791,7.931236627
0.5688355417,-4.433018892,-2.46750454,-3.836679202,6.360844476
0.5788415417,-4.393693736,-2.26190182,-2.834672846,5.697026823
0.5888485417,-4.216846452,-2.329329279,-3.128528761,5.744150164
0.5988545417,-3.28699883,-2.735785612,1.155389348,4.429876834
0.6088605417,-2.52840563,-3.252713097,1.191093031,4.288552218
0.6188675417,1.054320225,-1.016034119,-1.297952651,1.956680238
0.6288735417,2.332466311,0.5876916584,-3.871142691,4.557578996
0.6388795417,1.856423727,1.64839792,-4.214799342,4.891631451
0.6488855417,-0.1133915448,1.903692326,-1.773754038,2.604439575
0.6588925417,-0.4237828016,2.067876002,0.6938703704,2.221971897
0.6688985417,-0.4943765286,1.457716417,2.056785588,2.568990513
0.6789045417,-1.057392937,-1.047790932,1.282030683,1.964573321
0.6889115417,-1.021692177,-2.879386211,0.1761812854,3.060352872
0.6989175417,-1.775270221,-3.138889443,-0.2794442832,3.616946281
0.7089235417,-2.663911344,-2.00557962,1.277355834,3.570771792
0.7189295417,-1.540555968,-0.7336227391,3.372454133,3.779545196
0.7289365417,1.167014197,0.1423012388,2.936920767,3.16349101
0.7389425417,3.633744858,0.8638096069,-0.02946119606,3.735122045
0.7489485417,3.461252874,1.039661329,-3.050792953,4.729535365
0.7589555417,1.174122511,1.380997001,-4.261346687,4.630852187
0.7689615417,-0.03584211633,1.408247949,-4.925134887,5.122636099
0.7789675417,0.349267201,0.8486250456,-4.238684049,4.336887652
0.7889735417,1.52445946,0.7099690707,-1.613963082,2.330860261
0.7989805417,2.183890315,0.7686132815,-0.08359764218,2.316707114
0.8089865417,1.587812288,0.8674807812,-0.1727939934,1.817561149
0.8189925417,0.6066588566,0.9925118666,-1.279050357,1.728896929
0.8289995417,-0.09488759235,1.437821558,-2.438449141,2.832378629
0.8390055417,0.02648540184,1.895539991,-2.697372621,3.296906488
0.8490115417,0.9641218805,2.485156407,-1.001005313,2.847375108
0.8590185417,1.719575053,3.250176575,2.277558324,4.325258148
0.8690245417,2.117975238,3.547852769,4.761152063,6.304097663
0.8790305417,1.330623238,2.65824013,5.720890651,6.447122508
0.8890365417,-0.597246155,1.249820419,6.412853075,6.560749851
0.8990435417,-1.778059927,0.9220252899,8.601012735,8.831140799
0.9090495417,-1.912696161,0.7941253413,12.67681616,12.84487095
0.9190555417,-1.198918068,0.3991705553,16.65418931,16.70205865
0.9290625417,-0.307182853,0.5247490132,18.55742058,18.5673795
0.9390685417,0.7524816176,1.010772356,18.71001186,18.75239807
0.9490745417,0.5390341996,1.460221803,17.35617562,17.42583248
0.9590805417,-0.01091510709,1.757266497,15.38803323,15.48804931
0.9690875417,-1.058769445,1.408404362,14.05063936,14.1606872
0.9790935417,-1.327785146,0.7295018408,13.69584902,13.77938557
0.9890995417,-1.081766471,0.3557308593,12.34025277,12.39268338
0.9991065417,-1.721090213,0.4845169535,9.530362174,9.696634022
1.009112542,-1.998795096,0.9769200468,6.582024719,6.947848876
1.019118542,-1.540640898,1.705369389,4.261243776,4.841493328
1.029125542,-1.030871648,3.176367171,3.303775077,4.697545585
1.039131542,-0.8030494349,3.968033393,2.79439547,4.919229965
1.049137542,-0.3786000507,4.139498607,2.496985617,4.849095161
1.059143542,0.1592842209,4.469962185,1.723413604,4.793337861
1.069150542,0.5753844389,3.374700341,0.09056752324,3.424598096
1.079156542,-1.091846559,2.45759731,-0.3121126771,2.707273124
1.089162542,-1.873965374,1.739401938,-0.1125325888,2.559282889
1.099169542,0.004058296569,0.5146555495,-0.05958429694,0.5181091515
1.109175542,1.834588762,0.04412747473,0.07404738486,1.83661269
1.119181542,2.50420225,-0.4173239672,-0.3683231306,2.56531677
1.129187542,2.540172567,-1.379081599,-2.556949398,3.859058557
1.139194542,2.019582532,-2.426307397,-4.831912143,5.771746369
1.149200542,0.9834383035,-3.70341034,-6.038203257,7.151384315
1.159206542,0.8311908413,-5.003739592,-6.73108194,8.428271009
1.169213542,1.262487096,-5.331628057,-6.323667834,8.3671325
1.179219542,1.571883595,-5.071913449,-5.777596364,7.847021334
1.189225542,2.919427652,-5.362819444,-6.030707712,8.582093317
1.199232542,3.115952277,-4.949466906,-6.983707969,9.109256733
1.209238542,3.098663523,-4.204647114,-8.133143681,9.665857392
1.219244542,3.297496921,-4.06759101,-9.560035039,10.90014002
1.229250542,2.377931921,-3.403974134,-10.70603668,11.48306673
1.239257542,1.517520277,-2.780358059,-12.21857221,12.62247066
1.249263542,1.278127082,-2.551762333,-13.24620282,13.55016564
1.259269542,1.224682581,-2.396755862,-13.4067697,13.67427365
1.269276542,1.520734053,-2.337264536,-13.03987913,13.3346873
1.279282542,1.709244923,-2.400590174,-12.15799856,12.51004718
1.289288542,1.580979524,-2.59370675,-11.26053048,11.66303381
1.299294542,1.270075466,-2.669194011,-10.2294313,10.64795535
1.309301542,1.258653515,-2.970268607,-9.545723979,10.07608806
1.319307542,1.272983286,-3.206682061,-9.2697354,9.890970158
1.329313542,0.9628684567,-3.255460411,-9.170463712,9.77867797
1.339320542,0.6383694034,-3.312998475,-9.151723385,9.753846181
1.349326542,0.5282774424,-3.225314214,-9.217456614,9.779735951
1.359332542,0.3544889107,-3.165953573,-9.139906163,9.67919465
1.369339542,0.08268993504,-3.290828464,-8.603239354,9.211520884
1.379345542,-0.006043243557,-3.534927498,-7.86402675,8.621987339
1.389351542,-0.05481209189,-3.693017206,-7.157397755,8.054174264
1.399357542,-0.08695197053,-3.65451066,-7.087766773,7.974926121
1.409364542,0.2346067373,-3.497483976,-7.513335899,8.290817258
1.419370542,0.54431884,-3.162187381,-7.454300655,8.115559764
1.429376542,1.076414368,-2.857480203,-7.563654698,8.156759981
1.439383542,1.383080071,-2.741357716,-7.702382228,8.291842051
1.449389542,0.8909692658,-2.61405506,-7.046026424,7.567932244
1.459395542,0.2974349233,-2.576486115,-6.022240359,6.55699071
1.469401542,-0.2291770128,-2.263023316,-4.952982836,5.45030601
1.479408542,-0.655899429,-1.27674597,-2.860912226,3.200797259
1.489414542,-0.488378674,0.5521812254,-1.087115504,1.313483138
1.499420542,-0.5260941651,4.164350443,-0.0299231261,4.197557036
1.509427542,-0.8766922655,8.903097437,1.866427143,9.138779108
1.519433542,-1.903272788,12.30005082,5.665687088,13.67529552
1.529439542,-3.148279486,13.40486234,13.72330521,19.4404502
1.539446542,-2.596123404,10.68323137,28.17869585,30.24748236
1.549452667,-0.4661132077,7.035877411,41.91067131,42.49970826
1.559458667,-1.107074536,5.690228437,45.71354133,46.07962863
1.569464667,-3.514720691,6.342541476,39.71688955,40.37341216
1.579471667,-5.15304532,7.519773098,30.833575,32.15291917
1.589477667,-5.444806763,8.472264647,23.09617906,25.19640205
1.599483667,-4.684488634,9.028155347,17.71101273,20.4238095
1.609490667,-3.19701369,9.077218164,14.13269684,17.09824278
1.619496667,-1.877409237,8.877550952,10.72795205,14.05078402
1.629502667,-0.9711682869,8.667004995,8.291312619,12.03353682
1.639508667,0.09680504054,7.919073608,8.162298483,11.3729598
1.649515667,0.3529885152,6.677216805,8.641180183,10.92610727
1.659521667,-0.1441497995,5.272881081,7.685374432,9.321428765
1.669527667,-0.598268833,4.189325362,5.661736709,7.068495961
1.679534667,-0.8192248799,3.45649324,3.167957121,4.759666716
1.689540667,-0.4558623809,2.902606966,0.8667012012,3.063349259
1.699546667,0.2667030542,2.200566282,-0.9454754752,2.409885133
1.709553667,1.010168192,1.400846105,-2.411732628,2.966355315
1.719559667,1.447847194,0.1375539941,-3.617927263,3.899305102
1.729565667,1.656114052,-1.423260822,-4.527870378,5.026927021
1.739571667,1.654984516,-2.868664464,-4.89895164,5.913369321
1.749578667,1.528266144,-4.37748847,-5.257867185,7.010218973
1.759584667,1.435380199,-5.573833178,-5.468206735,7.93909425
1.769590667,1.580883045,-6.290904715,-5.713464103,8.643977406
1.779597667,2.029403077,-6.656816454,-5.929253258,9.142632353
1.789603667,2.37933496,-6.589207438,-6.740418189,9.721734767
1.799609667,2.447431633,-6.448309422,-8.761524067,11.15055694
1.809615667,2.366551923,-6.105067338,-11.20191331,12.97517927
1.819622667,2.464258751,-5.491378666,-13.21053597,14.51709584
1.829628667,3.051191733,-4.83547953,-14.39962458,15.49325083
1.839634667,3.881269776,-4.267361718,-14.64481119,15.73992141
1.849641667,4.593408895,-4.140619226,-14.21128927,15.4985443
1.859647667,4.453169274,-4.512981613,-13.4924127,14.90781406
1.869653667,3.497597412,-4.762392257,-12.7858679,14.085169
1.879660667,2.681425509,-4.976223764,-11.91620684,13.18896627
1.889666667,2.157145004,-5.013376388,-10.85047928,12.14578602
1.899672667,0.9586445743,-5.287490349,-9.791967187,11.16956467
1.909678667,-0.2236978063,-5.698561889,-8.819526107,10.50274674
1.919685667,-0.8022357948,-5.906254989,-8.055415474,10.02083573
1.929691667,-0.9778674419,-5.601582309,-7.208605916,9.181391417
1.939697667,0.2820460019,-5.611425512,-5.994859017,8.216202338
1.949704667,1.064099255,-6.111958866,-3.560511113,7.153012498
1.959710667,0.2274949881,-5.25396183,-2.908232573,6.009466331
1.969716667,0.6781065693,-4.614079679,-3.89030694,6.073223847
1.979722667,1.036662365,-4.291193799,-5.349100707,6.935552714
1.989729667,0.5301810765,-3.910561695,-6.993188059,8.029835862
1.999735667,0.1070835686,-3.748526286,-7.521561761,8.404570634
2.009741667,-0.09266967036,-3.900909696,-7.184107836,8.175395375
2.019748667,0.07937609866,-3.823301357,-6.040190726,7.1489746
2.029754667,0.832350271,-3.442710183,-4.664270132,5.856660844
2.039760667,1.446586242,-3.243897542,-3.602321629,5.058873801
2.049767667,1.550240126,-3.185108466,-2.862884492,4.554587578
2.059773667,0.8599259593,-3.25060576,-2.108880186,3.969040955
2.069779667,0.4257845959,-2.755495114,-1.622395352,3.225866166
2.079785667,0.3923372068,-1.57324892,-1.397857593,2.140805105
2.089792667,0.5671830612,0.09845483243,-1.553070179,1.656326344
2.099798667,0.8405010704,2.419856749,-1.432558479,2.935025133
2.109804667,0.4723318677,4.701516311,0.6506992078,4.769775935
2.119811667,0.04262379013,6.19619327,5.396231604,8.216686884
2.129817667,-0.7470100124,6.438780799,11.33455857,13.05711071
2.139823667,-2.768938447,6.267620518,16.47811327,17.84596044
2.149829667,-3.724603865,6.245972371,20.25793123,21.52367586
2.159836667,-3.790208455,6.953365597,21.81720823,23.21003119
2.169842667,-2.99363028,8.290149023,22.55080692,24.21213096
2.179848667,-1.339140146,9.134589289,22.87919824,24.6716787
2.189855667,-0.09006144673,9.604461014,22.3705396,24.34532449
2.199861667,0.3950250256,9.666954886,20.37805643,22.55817469
2.209867667,-0.004801075682,9.310434945,17.58624484,19.89874945
2.219874667,-0.8124218637,8.863056874,14.70280972,17.18680948
2.229880667,-1.375448724,8.620507352,12.03792248,14.86998937
2.239886667,-1.573903516,8.754358889,9.463188776,12.98722117
2.249892667,-1.922960948,8.769871552,7.020009822,11.39688395
2.259899667,-2.609044581,7.870573878,5.316370332,9.849712701
2.269905667,-3.676841176,5.907025652,4.516055494,8.294990676
2.279911667,-4.317757115,4.310450435,4.213388994,7.414557051
2.289918667,-3.829454967,2.943608227,3.95354867,6.241802771
2.299924667,-2.346361341,1.593028296,3.394529711,4.423345188
2.309930667,-0.3259175878,0.4034485245,1.885486727,1.955518649
2.319936667,1.161063413,-0.7133334124,-0.4799131483,1.444724692
2.329943667,1.723672928,-1.735861741,-2.940134397,3.824742425
2.339949667,2.23273123,-2.635211456,-5.026915031,6.099123125
2.349955667,2.540643852,-3.548996192,-6.309633347,7.672139084
2.359962667,2.521127601,-4.653242868,-7.075861257,8.836094504
2.369968667,2.234581289,-5.592681093,-7.499382688,9.618325012
2.379974667,1.379831797,-6.427344815,-7.414064795,9.908736243
2.389981667,0.238867987,-7.199441575,-7.283412854,10.24388206
2.399987667,-0.5515942381,-7.446202846,-7.929852365,10.8918663
2.409993667,-0.8890304752,-7.286196129,-9.080689071,11.676384
2.419999667,-1.111733305,-6.851321744,-10.06828555,12.2289384
2.430006667,-0.9605434576,-6.128378432,-10.69988775,12.36799352
2.440012667,-0.4621843904,-5.401843761,-10.97942676,12.24505379
2.450018667,-0.3146072455,-5.301893211,-10.93159069,12.15354781
2.460025667,-0.4151952884,-5.464413646,-10.22251171,11.59879085
2.470031667,-0.5647101275,-5.698897519,-8.6010332,10.3331555
2.480037667,-0.8562063262,-5.901301813,-6.515506793,8.832342901
2.490043667,-0.8349701891,-6.071710727,-4.639734045,7.68700061
2.500050667,-0.6136750768,-6.293250033,-3.611388906,7.281739003
2.510056667,-0.579140069,-6.300137469,-3.335625445,7.152169772
2.520062667,-0.7876971316,-6.103059989,-3.694662613,7.177627729
2.530069667,-0.9607694525,-5.868669087,-4.334311752,7.35871002
2.540075667,-0.9659175604,-5.706829852,-5.102180976,7.715773092
2.550081917,-0.8873336864,-5.581247447,-5.813895879,8.107963334
2.560087917,-0.5975813832,-5.373911027,-6.204084088,8.229622264
2.570094917,-0.2438814446,-5.146480066,-6.512756848,8.304320381
2.580100917,-0.3759572554,-4.925581614,-7.059429996,8.616162137
2.590106917,-0.396045584,-4.628460029,-7.582132484,8.892031677
2.600113917,-0.4074063586,-4.43730227,-7.618030879,8.82553261
2.610119917,-0.2911389704,-3.996828591,-7.336391551,8.359547935
2.620125917,0.02160133224,-2.878010654,-6.889146212,7.46617355
2.630132917,0.5560010652,-0.9462765437,-6.480291352,6.572575788
2.640138917,0.5415225918,1.905611089,-6.098126693,6.41184447
2.650144917,-0.5042169905,5.605226879,-4.999507377,7.527806928
2.660150917,-2.815569992,9.312864463,-2.285007677,9.993905091
2.670157917,-4.833135965,11.6828737,3.273957201,13.06015072
2.680163917,-4.348776887,12.21458908,10.58514082,16.73777922
2.690169917,-0.3981226612,12.21564041,19.29697408,22.84192595
2.700176917,6.330497966,11.31668246,29.18758613,31.93834202
2.710182917,10.17129244,10.07776973,33.78538512,36.69426222
2.720188917,9.664533554,8.216620286,31.93305503,34.36038505
2.730195917,5.514476337,5.640082716,25.73828789,26.91987084
2.740201917,0.2491212807,4.410053076,18.42083547,18.94301478
2.750207917,-3.892726518,4.064675004,12.14915056,13.38942724
2.760213917,-6.545369693,3.679563348,8.299305178,11.19193984
2.770220917,-7.99381038,3.650648282,5.324395051,10.27508734
2.780226917,-8.706635669,3.907797132,3.181913255,10.05986854
2.790232917,-7.548239098,3.842129391,2.09364702,8.72474811
2.800239917,-5.432872011,3.754149846,1.964453375,6.88976171
2.810245917,-3.145238642,4.170721861,2.500394543,5.791322805
2.820251917,0.006377704293,4.720213952,3.447280952,5.845015517
2.830257917,3.336112518,4.881012967,4.297323436,7.30896183
2.840264917,5.270473782,4.408719326,4.449335255,8.186042035
2.850270917,4.825905883,3.474393906,3.96055305,7.144701608
2.860276917,2.901957926,1.939025588,2.85655605,4.510110032
2.870283917,1.102651702,0.3816471809,1.096504962,1.60119283
2.880289917,0.2143608993,-0.8128331423,-0.8484801078,1.194389721
2.890295917,0.5129079995,-1.990636622,-2.456722859,3.20331016
2.900302917,1.213754062,-3.13824508,-3.939706557,5.18102971
2.910308917,1.891253836,-4.210872937,-5.281799254,7.014677136
2.920314917,2.348773464,-5.262135653,-6.42001533,8.626900095
2.930320917,2.58814137,-6.303523591,-7.255511695,9.953659396
2.940327917,2.483887854,-7.279270687,-7.720517952,10.89788411
2.950333917,2.070180243,-8.146824412,-7.844630367,11.49759191
2.960339917,1.658342426,-8.699648246,-7.960486513,11.90812012
2.970346917,1.419255333,-8.951279079,-8.332844222,12.31161954
2.980352917,1.459338727,-8.673840975,-8.928046921,12.53296488
2.990358917,1.433044675,-8.294280081,-9.521856229,12.70883335
3.000364917,1.346079183,-8.076491178,-10.10556389,13.00630848
3.010371917,1.234916158,-7.823652896,-10.72744451,13.33464016
3.020377917,0.9826039059,-7.842086243,-11.0990491,13.62544377
3.030383917,0.6239736316,-8.160920295,-10.76640918,13.52425709
3.040390917,0.2096581299,-8.26141639,-9.740228684,12.77368436
3.050396917,-0.2250630581,-8.054996814,-8.376926966,11.62353356
3.060402917,-0.4161182714,-7.760795327,-7.043957679,10.48906279
3.070409917,-0.07869394787,-7.480512553,-5.896563229,9.525424857
3.080415917,0.4820104714,-7.121790551,-4.972355831,8.699227394
3.090421917,0.8297049907,-6.843652536,-4.33253186,8.14216327
3.100427917,0.8172510792,-6.689544489,-3.82098469,7.747117451
3.110434917,0.6860884573,-6.557822508,-3.740620558,7.580764841
3.120440917,0.5311346843,-6.504702893,-3.859230158,7.582013004
3.130446917,0.4912472449,-6.269617342,-4.047629786,7.478818914
3.140453917,0.6730162758,-5.754602188,-4.660456578,7.435607088
3.150459917,0.7035483894,-5.023425997,-5.529525316,7.503695044
3.160465917,0.3915910289,-4.414885215,-6.364530516,7.755759387
3.170471917,0.1091903935,-3.69494211,-6.971667967,7.891050245
3.180478917,-0.07842132144,-2.712284775,-7.208644508,7.702414832
3.190484917,-0.4264308594,-1.214095978,-6.841635246,6.961597889
3.200490917,-1.537278603,0.7361387229,-5.226884544,5.497767525
3.210497917,-2.844350865,3.250415726,-3.593941399,5.618892152
3.220503917,-3.149711469,6.084983906,-2.821114907,7.409885343
3.230509917,-3.110255335,8.926672241,-1.029577732,9.508900875
3.240515917,-2.079326604,10.77106357,3.085028985,11.39547337
3.250522917,-1.060335183,11.02094901,9.858740051,14.82499184
3.260528917,0.03934207689,10.68803427,18.24770994,21.14744766
3.270534917,1.911483741,9.984544065,27.01783175,28.8670768
3.280541917,2.939139493,9.079893265,32.63062785,33.99765987
3.290547917,2.01485345,8.96366582,32.27761039,33.55966436
3.300553917,-0.309789359,9.450609661,26.98676433,28.59537447
3.310560917,-2.347045758,10.046362,21.28157988,23.65044726
3.320566917,-4.231259254,10.38626883,16.68896153,20.107202
3.330572917,-5.327409875,10.06966783,13.24868788,17.47304315
3.340578917,-5.593641205,9.918201556,11.25284724,16.0089386
3.350585917,-4.403176165,9.530876144,10.23998319,14.66570203
3.360591917,-2.554699097,8.984642707,9.433801839,13.27580164
3.370597917,-1.088309359,8.45990071,8.174894555,11.81453504
3.380604917,-0.1040626777,7.591617837,6.162075351,9.778275055
3.390610917,0.3911201819,6.577076805,3.581672187,7.499285962
3.400616917,0.6078073228,5.243508178,0.9066575646,5.355915953
3.410623917,0.565240945,3.607861866,-1.680588596,4.020017736
3.420629917,0.3715913587,1.913856248,-4.151443006,4.586437061
3.430635917,0.689155468,0.1170004463,-5.938034021,5.979036076
3.440641917,1.116072304,-1.700775524,-7.16508509,7.448268196
3.450648917,1.544147035,-3.251091079,-8.242651505,8.994180736
3.460654917,1.627483307,-4.803079523,-9.639054896,10.89172411
3.470660917,0.9472878928,-6.344630102,-11.26680805,12.96505492
3.480667917,0.5901017711,-7.401996726,-12.30469117,14.37161092
3.490673917,0.2182994558,-8.077675239,-12.54315232,14.92069576
3.500679917,-0.09540582011,-8.388199813,-12.04162026,14.67554486
3.510685917,-0.07763916498,-8.181665631,-11.08129344,13.77464136
3.520692917,0.2471958657,-7.682087127,-10.21024542,12.77985446
3.530698917,0.8486074309,-7.452455274,-9.72154566,12.27874889
3.540704917,1.475903304,-7.378019634,-9.446784997,12.07705308
3.550711667,1.962760752,-7.257156517,-8.870063592,11.62741496
3.560717667,1.99897899,-7.137870394,-8.136012325,11.00635304
3.570723667,1.638804247,-7.217411238,-7.301890056,10.396841
3.580730667,1.012583969,-7.361613516,-6.25479465,9.712936527
3.590736667,0.3958334763,-7.446911529,-5.365932502,9.187295961
3.600742667,-0.1540191138,-7.511909763,-4.525499917,8.771126476
3.610748667,-0.4776023287,-7.493285211,-3.692223154,8.367194217
3.620755667,-0.5649432487,-7.458193147,-3.020675114,8.066491433
3.630761667,-0.4999805731,-7.401765177,-2.511475017,7.832216485
3.640767667,-0.4777941539,-7.18543457,-2.358505424,7.577684676
3.650774667,-0.6543765217,-6.907459692,-2.871496271,7.509107727
3.660780667,-0.9214146213,-6.497171679,-3.685069671,7.526086846
3.670786667,-1.010769651,-6.064785869,-4.289258956,7.49673431
3.680792667,-0.7461251825,-5.580407787,-4.952088212,7.498055183
3.690799667,-0.4549183479,-4.959641061,-5.547970358,7.455532526
3.700805667,-0.2764322363,-4.289170078,-5.807048789,7.224625276
3.710811667,-0.1410773069,-3.465128408,-5.726877615,6.695083638
3.720818667,-0.2852763692,-2.161322694,-5.602059442,6.011303385
3.730824667,-1.13098687,-0.5272258937,-5.11823743,5.268154595
3.740830667,-2.565849737,1.314490916,-3.247117896,4.34226276
3.750836667,-4.287046954,3.367199825,0.02466881812,5.451368158
3.760843667,-5.567956141,5.339936365,4.027108397,8.702566175
3.770849667,-5.328622003,7.444359804,7.796786694,12.02508163
3.780855667,-4.128411701,9.828278396,10.2881432,14.81501704
3.790862667,-3.187618091,12.556215,11.88192812,17.57838616
3.800868667,-1.880133309,14.57708991,14.45181332,20.61265048
3.810874667,-0.4600350636,13.7647877,18.19787529,22.82199986
3.820881667,-0.1901294529,11.27389722,21.8020078,24.54515129
3.830887667,-1.388749532,9.431444242,24.87294208,26.63726738
3.840893667,-3.130859461,8.576551493,26.72410038,28.24069861
3.850899667,-4.437847815,7.54974768,25.74404155,27.19280895
3.860906667,-4.531018519,6.461653352,23.06633487,24.37906678
3.870912667,-4.05072881,6.066638267,20.17166609,21.45014257
3.880918667,-3.367884242,6.323533933,16.95950752,18.41072028
3.890925667,-1.972268178,6.730613578,13.96327026,15.62574534
3.900931667,0.09809172034,7.08644998,11.25828983,13.30325092
3.910937667,2.609847404,6.842857899,8.123375908,10.93733257
3.920944667,4.583141184,6.101878266,4.368656543,8.793364628
3.930950667,5.09408609,5.190609587,-0.3997098148,7.283674136
3.940956667,3.623175724,3.803400359,-5.625198628,7.696500258
3.950962667,2.200221734,2.071593661,-9.448053258,9.919585997
3.960969667,1.38434117,-0.290213685,-11.42369353,11.51092517
3.970975667,1.668007581,-3.10030659,-11.47248269,12.00050038
3.980981667,0.9402818321,-5.806876296,-9.133774772,10.86415132
3.990988667,1.022852996,-7.98999741,-6.222991059,10.1789933
4.000994667,1.557155628,-9.52037513,-4.663061512,10.71477573
4.011000667,1.150430763,-10.28341046,-3.766767552,11.01183724
4.021006667,0.7993097019,-10.22683865,-4.124466292,11.05614521
4.031013667,0.2406442067,-9.764727933,-5.60630569,11.26225931
4.041019667,0.3311053837,-8.820253501,-7.267090352,11.43315813
4.051025667,0.7922754284,-7.874789135,-8.903233677,11.91249656
4.061032667,1.097564186,-7.134049239,-10.44031464,12.69249682
4.071038667,0.9304830681,-6.494980143,-11.13399673,12.9234844
4.081044667,0.7348368403,-6.093315019,-10.91718081,12.52410915
4.091051667,0.7745647238,-6.1489963,-9.935722153,11.71019559
4.101057667,0.5740235726,-6.483086906,-8.200524656,10.46940894
4.111063667,0.001226563118,-6.86769921,-6.334578153,9.343028113
4.121069667,-0.6205068174,-7.212909467,-4.793773679,8.68281969
4.131076667,-1.051965113,-7.441882923,-3.573071517,8.321964438
4.141082667,-1.009154797,-7.598078426,-2.603850499,8.095012451
4.151088667,-0.9371574455,-7.653486641,-1.964818826,7.957049382
4.161095667,-0.8800951257,-7.659918578,-1.750318982,7.906486995
4.171101667,-0.6459461524,-7.581127932,-2.261761487,7.937651553
4.181107667,-0.318803646,-7.356268576,-3.144795715,8.006626207
4.191113667,-0.03102605715,-7.023140422,-3.910252962,8.038379328
4.201120667,0.232030381,-6.692193863,-4.394065034,8.009188743
4.211126667,0.4360502601,-6.400649351,-4.703961616,7.955231413
4.221132667,1.05240782,-5.985075456,-4.847861009,7.773702258
4.231139667,1.618626237,-5.600868949,-5.318198172,7.891319007
4.241145667,1.768338639,-5.356058308,-6.072563251,8.287967578
4.251151667,1.434931864,-5.105712109,-6.749797708,8.584118749
4.261158667,0.7970394474,-4.848216519,-7.050657418,8.59373291
4.271164667,0.4994228218,-4.729727372,-6.492714347,8.048296947
4.281170667,0.5335082153,-4.567586421,-5.459882054,7.13847244
4.291176667,0.587566528,-3.688958069,-4.303036165,5.698224838
4.301183667,0.5500928193,-2.334568092,-3.48209235,4.228212083
4.311189667,-0.1866768913,-0.6156890041,-3.658186512,3.714330326
4.321195667,-2.113949868,1.816247508,-4.523580276,5.313221016
4.331202667,-5.011207656,5.194092774,-5.647197608,9.164149864
4.341208667,-7.513657495,9.121365811,-5.075410084,12.86134327
4.351214667,-7.904733312,12.27410906,-0.08691125929,14.5995245
4.361220667,-5.532932489,14.26763421,8.927445828,17.71660286
4.371227667,-1.201255492,15.69074593,20.4123749,25.77416481
4.381233667,5.376775578,15.58957155,32.64902787,36.57736292
4.391239667,8.273503754,15.29555367,38.22636178,41.99594696
4.401246667,6.008450285,15.45785367,35.12487931,38.84332454
4.411252667,2.026128636,14.67435016,27.66932384,31.38523908
4.421258667,-0.1659375483,13.35633395,20.48300225,24.45347773
4.431265667,-1.352903468,12.28793539,14.19582806,18.82406009
4.441271667,-2.372750995,11.75082653,8.937335808,14.952854
4.451277667,-3.166559052,10.96889826,4.628540136,12.31938347
4.461283667,-4.181897937,10.23097146,1.161783863,11.1135408
4.471290667,-4.937646174,9.261896038,-1.171454573,10.56103091
4.481296667,-4.520598488,7.927595925,-1.560593791,9.258403794
4.491302667,-3.169416586,6.758131744,-0.3426252025,7.472277979
4.501309667,-1.296480907,5.526590014,1.30692345,5.825127366
4.511315667,0.632556394,3.659242519,1.556439929,4.026498312
4.521321667,1.970118157,1.856206795,0.409564712,2.737628987
4.531328667,1.897596603,0.05421070576,-1.875968045,2.6689076
4.541334667,1.13195495,-1.784536888,-4.571107614,5.035962543
4.551341083,0.5905485349,-3.389716283,-7.155079919,7.939401281
4.561347083,0.7377752855,-5.137985816,-8.732986731,10.159147
4.571354083,1.34246385,-6.893079634,-8.945468116,11.37269343
4.581360083,1.809274849,-8.292852191,-8.350632037,11.90705372
4.591366083,1.811745152,-9.027593429,-7.472321774,11.85813882
4.601373083,1.870146996,-9.204048364,-6.429006593,11.38174336
4.611379083,2.581375557,-9.063499426,-5.679455527,11.00303307
4.621385083,3.392498096,-8.806839988,-5.885414928,11.12239105
4.631391083,3.513723156,-8.568289377,-6.928493296,11.56571885
4.641398083,3.071702596,-8.380262802,-8.047438703,12.01771322
4.651404083,2.392732978,-8.418601241,-8.882367888,12.46974247
4.661410083,1.69358608,-8.459843407,-9.225350356,12.63108362
4.671417083,1.440606002,-8.288121209,-8.893051336,12.24151383
4.681423083,1.725386162,-8.192578874,-8.027632429,11.59905981
4.691429083,2.309553704,-8.192957189,-6.842339836,10.92136439
4.701435083,2.392658426,-8.063482878,-5.708353636,10.16513019
4.711442083,2.123619993,-8.196553811,-4.679633106,9.674307328
4.721448083,1.711458094,-8.264089737,-3.794460551,9.253226403
4.731454083,1.375488339,-8.09572384,-3.166648514,8.801157621
4.741461083,1.137506662,-7.988281837,-2.879979411,8.567429575
4.751467083,0.9866103449,-7.707072864,-3.181778185,8.396194645
4.761473083,0.8911019976,-7.470516154,-3.774292919,8.417123108
4.771480083,0.889027844,-7.083553269,-4.415003328,8.394006898
4.781486083,1.145491108,-6.767235859,-5.067756663,8.531693187
4.791492083,1.551545079,-6.410075648,-5.617658059,8.663396794
4.801498083,1.788473672,-5.950388018,-6.199315099,8.777087406
4.811505083,1.846623062,-5.232182706,-6.753234701,8.740247796
4.821511083,1.855560678,-4.187527928,-7.120201862,8.466154389
4.831517083,1.543237208,-3.586854574,-7.542633373,8.493434229
4.841524083,1.112089473,-3.188711228,-7.676969644,8.386923465
4.851530083,1.101083332,-2.465245176,-6.683699028,7.208443034
4.861536083,1.383833047,-1.442353735,-4.66209906,5.072528546
4.871543083,0.8287358147,-0.2647753733,-2.675517483,2.813414802
4.881549083,-0.8415860943,1.179048936,-1.218121201,1.892681381
4.891555083,-2.965326248,3.395700908,-0.2158756936,4.513374207
4.901561083,-4.315455651,6.665486121,0.3227183568,7.947075553
4.911568083,-4.230992036,10.01140617,1.127067189,10.92702282
4.921574083,-2.43069851,12.84391204,4.113617368,13.70387608
4.931580083,0.3921438832,14.5393052,10.86269528,18.15332811
4.941587083,4.632509226,14.54086992,20.58785218,25.62726472
4.951593083,7.98173354,13.14086757,28.48830592,32.37242723
4.961599083,6.89468411,11.44162577,29.43856266,32.32764205
4.971605083,2.102216114,10.46680604,23.3104187,25.63881747
4.981612083,-2.471786164,10.38186939,15.51121068,18.82792064
4.991618083,-5.367535223,10.25057133,9.306864635,14.84932242
5.001624083,-7.360990203,9.697986644,5.361044814,13.3032298
5.011631083,-8.493988808,8.974893644,4.530401053,13.16134854
5.021637083,-7.921409571,7.806625804,6.18845448,12.72749405
5.031643083,-5.945933025,7.001126824,8.267100468,12.35778485
5.041650083,-4.082930596,6.417533771,8.898241909,11.70614245
5.051656083,-2.700282195,5.938661427,7.986722385,10.31246614
5.061662083,-1.315350603,5.584841146,6.131275728,8.397210244
5.071668083,0.1590348737,4.994046662,3.978293502,6.38690953
5.081675083,1.048526073,4.13224192,1.798846194,4.627167367
5.091681083,1.197233777,2.979238821,-0.2830028987,3.223247323
5.101687083,0.7486274254,1.685209651,-1.872043979,2.627722064
5.111694083,0.2060063244,0.3224014378,-3.094753489,3.11831372
5.121700083,-0.2049188885,-0.8755702579,-4.069662094,4.167824923
5.131706083,-0.7195746573,-2.1284438,-4.948026736,5.434245972
5.141713083,-1.009400453,-3.510598696,-5.030952533,6.217208045
5.151719083,-1.085978659,-4.93657321,-4.420362301,6.71481255
5.161725083,-1.083049788,-6.08362092,-3.69222257,7.198329518
5.171731083,-1.10812031,-6.804104893,-3.73092529,7.83859538
5.181738083,-1.147547354,-7.147504267,-4.831367183,8.70320579
5.191744083,-1.531337978,-7.261171215,-6.42458259,9.815542006
5.201750083,-2.061262216,-7.379255151,-7.98091493,11.06332733
5.211757083,-2.413330818,-7.465313301,-9.128371945,12.03670398
5.221763083,-2.707464623,-7.506498165,-9.673276311,12.53994234
5.231769083,-2.818413493,-7.573031293,-9.486578223,12.46151772
5.241775083,-2.526497099,-7.65240666,-8.500969799,11.71362467
5.251782083,-2.015954335,-7.76716353,-7.31685425,10.85952381
5.261788083,-1.352615201,-7.732853238,-6.210783827,10.01001613
5.271794083,-0.8536529933,-7.511824978,-5.16271486,9.154772671
5.281801083,-0.6941314486,-7.433427265,-4.361288466,8.646299582
5.291807083,-0.9425647312,-7.358247274,-3.459463626,8.18536009
5.301813083,-1.36725122,-7.441494083,-2.631104956,8.010488336
5.311819083,-1.658755093,-7.461847072,-2.00145514,7.901674054
5.321826083,-1.921591968,-7.310822847,-1.674971761,7.74249164
5.331832083,-1.835933329,-7.162546813,-1.832495166,7.617792763
5.341838083,-1.577061012,-6.851511194,-2.230719788,7.376071979
5.351845083,-1.269883093,-6.484366277,-2.807403186,7.179214562
5.361851083,-1.114631623,-6.219887942,-3.776611925,7.361535662
5.371857083,-1.081350587,-6.0443288,-4.949785579,7.886926335
5.381864083,-1.011692707,-5.820624855,-5.604203616,8.143113287
5.391870083,-0.9186724234,-5.427748096,-5.251488458,7.608057534
5.401876083,-0.4226941963,-5.041506173,-4.31376873,6.648613053
5.411882083,0.04255530462,-4.548912168,-3.736307067,5.886799077
5.421889083,0.165698251,-3.819281981,-3.720757567,5.334642221
5.431895083,-0.3448211244,-2.911921581,-4.334774852,5.233398697
5.441901083,-1.29359019,-1.902189884,-5.055506161,5.554263631
5.451908083,-2.26574651,-0.5973164678,-5.141759024,5.65049379
5.461914083,-2.660052182,1.030502177,-3.49949074,4.51489178
5.471920083,-0.590438388,3.089297453,0.9583504593,3.287979903
5.481927083,3.739894626,5.285184792,7.33150094,9.781150042
5.491933083,8.51744199,7.318221329,13.06813171,17.23018421
5.501939083,12.03809907,9.148204531,16.26038635,22.20373031
5.511945083,12.1671249,9.961658063,16.00420346,22.43675752
5.521952083,9.203428559,9.292168243,13.09980608,18.51087268
5.531958083,5.151767119,7.797846794,9.594215523,13.39388258
5.541964083,1.934748642,6.610521124,7.314183826,10.04686652
5.551970917,1.114410891,6.294740489,7.487987049,9.845588835
5.561976917,3.070333763,6.049112408,9.349130648,11.550972
5.571982917,5.031609176,6.110693529,10.73992597,13.34180184
5.581988917,4.915339047,5.966859625,10.01304106,12.65009735
5.591995917,3.267766461,5.246429447,7.733923278,9.900347916
5.602001917,1.719498308,4.341794434,5.533481542,7.240667878
5.612007917,1.064402871,3.458590636,4.058290429,5.437326905
5.622014917,0.9001212546,2.974853994,3.152759038,4.427173377
5.632020917,1.634249705,2.926955942,2.351216869,4.094638439
5.642026917,2.385468982,2.723286311,1.234882244,3.825138527
5.652033917,1.924747857,2.248298272,-0.4408578408,2.992299295
5.662039917,0.9841787803,1.473604179,-2.080690759,2.733018694
5.672045917,0.16652724,0.7636475337,-3.295968459,3.387373165
5.682051917,-0.3410482085,-0.005049070716,-4.024585909,4.039013631
5.692058917,-0.437426987,-0.373028385,-4.333435839,4.371402374
5.702064917,-0.6573866683,-0.4189255196,-4.223100049,4.294441739
5.712070917,-1.740249492,-0.9553718877,-4.205708091,4.650718685
5.722077917,-3.083523619,-1.576551427,-4.092858583,5.361447911
5.732083917,-4.239710235,-2.59137605,-4.043996326,6.406580913
5.742089917,-5.436615399,-3.2172357,-4.097352753,7.529654184
5.752096917,-6.117640021,-3.658046179,-4.282585528,8.315489167
5.762102917,-6.31118169,-4.028454427,-4.317184673,8.642774027
5.772108917,-6.243824689,-4.11401264,-4.26944625,8.610378507
5.782114917,-6.253939787,-4.317845408,-4.282946886,8.723484732
5.792121917,-6.390696221,-4.534962466,-4.254262201,8.916592938
5.802127917,-6.543653535,-4.584725779,-4.322731342,9.084333675
5.812133917,-6.73647892,-4.563568214,-4.394522871,9.247601546
5.822140917,-6.973619183,-4.603940315,-4.46883455,9.476186636
5.832146917,-6.887721246,-4.65279731,-4.454940396,9.430573721
5.842152917,-6.117405547,-4.484656531,-4.159731435,8.65090518
5.852158917,-4.913418236,-3.941940193,-3.429364498,7.17224596
5.862165917,-4.056153272,-3.358825443,-2.466519284,5.815307825
5.872171917,-3.734878592,-2.866140806,-1.632250834,4.982802826
5.882177917,-3.799538857,-2.415229263,-1.213090841,4.662769275
5.892184917,-4.041795434,-2.187523482,-1.683424496,4.894413892
5.902190917,-3.949048069,-2.081061473,-2.662297513,5.197463376
5.912196917,-3.412736186,-1.725104034,-3.162990496,4.962586129
5.922203917,-2.412551238,-0.6922822666,-2.617083918,3.626125542
5.932209917,-2.092634867,0.7629581469,-2.348272212,3.236604424
5.942215917,-2.039149216,1.912036595,-2.739440121,3.913891368
5.952221917,-2.025538652,3.419506677,-4.128817205,5.730878141
5.962228917,-0.8978399634,5.778207983,-5.4156122,7.970110388
5.972234917,1.551278592,8.776917447,-4.990195101,10.21483198
5.982240917,4.403477882,11.89870378,-2.585126545,12.94807509
5.992247917,7.681880136,15.57689011,1.937970166,17.47588385
6.002253917,12.15586316,19.74722138,8.199817727,24.59582835
6.012259917,17.69224667,23.36475337,14.37278703,32.64206334
6.022266917,22.8493447,26.25175763,18.79599751,39.55422675
6.032272917,26.33002846,27.24232741,22.02368277,43.82302367
6.042278917,27.59271596,26.25712537,25.0528726,45.58992249
6.052284917,25.90215494,24.15538347,26.63907719,44.31754297
6.062291917,22.3830924,22.07897871,26.74695598,41.27812715
6.072297917,20.13024207,19.43221316,26.5754361,38.58874652
6.082303917,18.69495177,16.04933929,24.58292252,34.80520928
6.092310917,16.69182433,12.47339036,20.84499636,29.47399429
6.102316917,14.37675261,8.943937315,16.69590335,23.77894486
6.112322917,11.8584036,6.336442246,13.14802339,18.80539166
6.122329917,9.693841553,4.47586992,10.69068891,15.10942768
6.132335917,8.357709507,2.643853056,8.916665901,12.5039273
6.142341917,7.106112996,1.04019803,7.577764614,10.44037214
6.152347917,5.570617794,-0.9421805692,5.738477322,8.052925481
6.162354917,3.386690934,-2.748028219,3.161539802,5.386712216
6.172360917,1.318467315,-3.671660836,0.728265447,3.968604278
6.182366917,-0.1092641415,-4.811348071,-1.038794113,4.923423821
6.192373917,-0.7518485834,-6.058901231,-2.20674328,6.491939335
6.202379917,-0.3936462522,-7.229327279,-2.932984421,7.811563729
6.212385917,0.4784215236,-8.765451642,-3.851511249,9.586248929
6.222391917,0.676405322,-10.35504938,-5.188552537,11.60196747
6.232398917,-0.1255359925,-11.89307175,-6.418497977,13.51510381
6.242404917,-1.031213637,-13.38688683,-6.622562295,14.97098767
6.252410917,-1.291331995,-14.86867652,-5.502383126,15.90664326
6.262417917,-0.9284124228,-16.27079674,-3.832461605,16.74182003
6.272423917,-0.4806917416,-17.72485777,-2.700684484,17.93586753
6.282429917,-0.186316045,-18.90528548,-2.519916642,19.07339803
6.292436917,-0.2713087597,-19.61357508,-3.584608074,19.94029465
6.302442917,-0.7086043306,-19.85710459,-5.338449419,20.57439586
6.312448917,-1.32939927,-19.68464916,-7.428933095,21.08178744
6.322454917,-1.630173026,-19.25431279,-9.343039019,21.46342012
6.332461917,-1.488897864,-18.59337862,-10.50737753,21.40877222
6.342467917,-1.001749152,-17.79243404,-10.67301862,20.77227809
6.352473917,-0.2334643375,-17.13781018,-9.678280942,19.683195
6.362480917,-0.1228926581,-16.69517829,-8.49394203,18.7320883
6.372486917,-0.6220322098,-16.25356265,-7.482403543,17.90395447
6.382492917,-1.231715977,-15.69415836,-6.781255143,17.14086206
6.392499917,-1.59018728,-15.06493948,-6.158058899,16.35245507
6.402505917,-1.387532726,-14.33115836,-5.383842523,15.37182837
6.412511917,-0.8374744054,-13.53140193,-4.640631301,14.32953804
6.422517917,-0.2283219306,-12.71007395,-3.998771621,13.32622547
6.432524917,0.303671125,-11.9808022,-3.560095376,12.50224446
6.442530917,0.8893126765,-11.2916634,-3.079137331,11.73770105
6.452536917,1.287099342,-10.55486043,-2.588496881,10.94358349
6.462543917,1.137745813,-10.04926339,-2.50078426,10.41806518
6.472549917,0.7291923769,-9.699329749,-2.671478226,10.08689819
6.482555917,0.3634817822,-9.427324294,-2.805220128,9.842551616
6.492561917,0.02280538358,-9.131422437,-3.07134153,9.634133828
6.502568917,-0.3300831442,-8.817988874,-3.411504178,9.460668234
6.512574917,-0.4660464764,-8.586294708,-3.685799988,9.355574685
6.522580917,-0.2811553247,-8.256032858,-3.763001361,9.077516517
6.532587917,-0.3727053264,-7.897717822,-3.836352927,8.788086244
6.542593917,-0.7955692381,-7.605220799,-3.975242425,8.61828673
6.552599792,-1.21919972,-7.226540496,-3.90178327,8.302604903
6.562606792,-1.222622826,-6.821485156,-3.395926611,7.717498549
6.572612792,-1.059099008,-6.595247612,-2.672472253,7.194518032
6.582618792,-1.356154374,-6.34623107,-2.363560342,6.906534657
6.592624792,-1.852988195,-6.039227105,-1.929071288,6.605084807
6.602631792,-2.520429443,-5.821568595,-1.218936887,6.459801283
6.612637792,-3.145899962,-5.57308298,-0.7849115181,6.447637285
6.622643792,-3.655395051,-5.504855329,-0.7154653072,6.646595804
6.632650792,-4.260542695,-4.650984673,-0.9472951287,6.378185521
6.642656792,-5.199457594,-2.221574158,-1.247585905,5.79018321
6.652662792,-6.911940998,1.068350619,-2.571453416,7.451756442
6.662669792,-7.147071573,4.247349622,-3.395252427,8.980442635
6.672675792,-0.8393254146,6.219348829,0.2515548187,6.280768013
6.682681792,13.40098095,8.059083433,9.083589875,18.08443312
6.692687792,28.88725209,11.7997993,20.22007869,37.18279413
6.702694792,40.35682755,14.48803916,26.85970199,50.59664415
6.712700792,42.3440108,15.21512171,25.71601234,51.82497921
6.722706792,33.50431882,14.06950715,19.35077431,41.16968396
6.732713792,22.02182101,12.1644188,13.8446899,28.71600815
6.742719792,13.06209972,9.682703192,10.78729076,19.51253013
6.752725792,6.453190092,7.702113841,8.866838268,13.40100895
6.762731792,2.756004991,6.439904049,7.246281865,10.07851817
6.772738792,1.596771099,5.522387035,5.584817172,8.014775066
6.782744792,1.815595543,5.194566983,4.43951778,7.070306318
6.792750792,2.482220228,5.328862908,3.582549269,6.884246976
6.802757792,3.433089175,5.741564652,2.472757094,7.132053952
6.812763792,4.201075342,6.417456588,1.274354458,7.775394677
6.822769792,4.140998125,6.75471697,-0.2057787216,7.92568052
6.832776792,3.59552658,6.572779101,-1.562146811,7.653073837
6.842782792,2.606627342,6.504643251,-2.707837383,7.512474507
6.852788792,1.287527066,5.866297456,-3.433398492,6.918048641
6.862794792,-0.1823384035,4.958023721,-3.681671854,6.178183726
6.872801792,-1.175016696,4.447088755,-3.717112412,5.913897811
6.882807792,-1.503260087,4.00155548,-3.3919698,5.45689438
6.892813792,-1.630216003,3.283017461,-2.845855061,4.640549417
6.902820792,-1.890108951,2.6387192,-2.367585565,4.017562977
6.912826792,-2.196785472,1.998143277,-2.116089803,3.646406316
6.922832792,-2.383684119,1.304136667,-2.061921197,3.410900387
6.932839792,-2.556620784,0.6204199862,-2.215234607,3.439257937
6.942845792,-2.698589426,0.1155368882,-2.466596467,3.65784524
6.952851792,-2.812765667,-0.405751158,-2.767497693,3.966778061
6.962857792,-2.916078367,-0.9402907491,-3.291671925,4.496972737
6.972864792,-2.858185084,-1.160889239,-3.788105212,4.885348186
6.982870792,-2.707282482,-1.27578995,-4.147821826,5.114825934
6.992876792,-2.366400919,-1.600056649,-4.475357119,5.309317841
7.002883792,-1.898281605,-1.802766752,-4.62016283,5.310305602
7.012889792,-1.333671538,-1.934429677,-4.735865779,5.286692976
7.022895792,-0.8184230804,-2.046637745,-5.061507744,5.520634297
7.032902792,-0.1535192317,-1.843007875,-5.308373095,5.621305107
7.042908792,0.793093527,-1.391216326,-5.190886161,5.432290432
7.052914792,1.512104001,-0.8168039864,-4.928801676,5.219838429
7.062920792,2.420271317,-0.2639836603,-4.081469084,4.752451
7.072927792,3.879997129,-0.03525344789,-2.541523274,4.638422262
7.082933792,5.660551479,0.07512444198,-0.5190280974,5.684793478
7.092939792,7.464311673,0.1555102086,1.905332177,7.705220495
7.102946792,8.532121425,-0.0611911118,3.988905614,9.418715855
7.112952792,8.535390018,-0.6218449527,5.29031397,10.06116275
7.122958792,7.597974345,-1.43523475,5.662494509,9.583994835
7.132965792,5.82548506,-2.324549473,5.447149158,8.307300427
7.142971792,3.573588704,-3.274921407,4.760857363,6.794218813
7.152977792,1.386591178,-4.164327346,3.521504338,5.627188476
7.162983792,-0.5063598123,-4.694258747,2.069399786,5.155083017
7.172990792,-1.914405302,-4.853750324,0.9059646696,5.295716368
7.182996792,-2.917041403,-4.86975006,-0.01196749628,5.67659576
7.193002792,-3.405986745,-4.701163139,-0.6188131714,5.838202661
7.203009792,-3.279083455,-4.292239282,-0.8812677848,5.472873035
7.213015792,-3.220778236,-3.884976034,-1.170374007,5.180369344
7.223021792,-3.467420517,-3.659736024,-1.965742101,5.411174994
7.233027792,-3.948747522,-3.425871372,-2.957879527,6.006517538
7.243034792,-4.566742375,-3.116879354,-3.673991536,6.638394884
7.253040792,-4.924249034,-2.861450754,-4.102863754,7.019232148
7.263046792,-4.756327233,-2.511596639,-3.999220687,6.702576559
7.273053792,-4.338351886,-2.17014088,-3.653178957,6.072604467
7.283059792,-3.834423638,-2.007129278,-3.152382478,5.354333559
7.293065792,-3.572205545,-1.922424173,-2.418965049,4.723109046
7.303072792,-3.262110449,-1.949151796,-1.654429323,4.144598134
7.313078792,-3.106107028,-1.934719698,-1.251601188,3.867498767
7.323084792,-3.019954445,-1.750893179,-1.150630299,3.675554633
7.333090792,-2.761234741,-1.37377642,-0.7758477491,3.18019161
7.343097792,-2.491904386,-1.086234328,-0.0611449188,2.719049685
7.353103792,-2.135593776,-0.9458163679,0.7156933486,2.442856186
7.363109792,-2.171443347,-0.8046189737,1.102624658,2.564831191
7.373116792,-2.418567438,-0.7826954234,1.098798825,2.769375279
7.383122792,-2.401019944,-0.6975003219,0.9596134579,2.678107813
7.393128792,-2.345733351,-0.3982760775,0.5799373734,2.448962258
7.403135792,-2.036748641,0.1104012787,-0.2177409554,2.05132752
7.413141792,-1.509451704,0.9501754671,-0.8584244674,1.979436898
7.423147792,-1.274266165,1.898649979,-1.23591077,2.599250168
7.433153792,-1.411740053,2.693253257,-1.48203294,3.38275697
7.443160792,-1.905032215,3.589547217,-1.189986738,4.234390794
7.453166792,-2.2111284,4.418710463,-0.5243379539,4.968804811
7.463172792,-1.768138956,5.404692525,0.6551501083,5.724180144
7.473179792,-0.09822679102,6.82119455,2.866965263,7.399853607
7.483185792,2.495703322,8.55594532,6.193973667,10.85348079
7.493191792,5.739035731,10.08718726,9.964209788,15.29618758
7.503198792,9.262338088,11.1917298,13.74024576,19.99600151
7.513204792,11.88860798,11.82781682,16.39143532,23.4502751
7.523210792,13.34178842,11.88632289,17.31311906,24.88035534
7.533216792,13.1803503,11.42486765,16.84613352,24.24956596
7.543223792,11.5422236,10.54105281,15.60251261,22.08563153
7.553229542,9.593812065,9.424650947,14.64612682,19.88402138
7.563235542,8.050611987,7.825720471,13.99797349,17.94428923
7.573242542,6.566792722,6.050086554,13.48508263,16.17324233
7.583248542,4.831478865,4.639362162,12.74284526,14.39607497
7.593254542,2.861736683,3.578495979,11.20715944,12.1076667
7.603261542,1.206232788,2.977080613,8.989027534,9.545712258
7.613267542,-0.002495006919,2.51792742,6.506939453,6.977121596
7.623273542,-0.9245608619,1.970128682,3.980245888,4.536361663
7.633279542,-1.511918352,1.461240826,1.579691967,2.629933186
7.643286542,-1.599289787,0.9785028881,-0.5712577665,1.959982439
7.653292542,-1.337168611,0.4517219675,-2.455902495,2.832583572
7.663298542,-1.040915191,-0.2100811028,-4.280421474,4.410175337
7.673305542,-0.8955496091,-1.07427034,-5.864798815,6.029256256
7.683311542,-0.8936504334,-2.203737227,-6.914474012,7.311977825
7.693317542,-0.7352509694,-3.554886677,-7.387815474,8.231502339
7.703324542,-0.5402072972,-4.883567616,-7.429434786,8.907163287
7.713330542,-0.3926282519,-6.096520463,-7.313700846,9.529529829
7.723336542,-0.4198274526,-7.067143643,-7.356740447,10.20991696
7.733342542,-0.731448525,-7.835230967,-7.775982885,11.06308145
7.743349542,-1.366269034,-8.498081274,-8.496763312,12.09458818
7.753355542,-2.132749982,-9.008445552,-9.381046506,13.17970968
7.763361542,-2.759212481,-9.411211706,-10.21872271,14.16356075
7.773368542,-3.131641819,-9.64962023,-10.83107822,14.84030345
7.783374542,-3.285967382,-9.756934179,-11.21811361,15.22633965
7.793380542,-3.210420771,-9.780548159,-11.45279161,15.39910255
7.803387542,-2.84861787,-9.671259021,-11.29962263,15.14362395
7.813393542,-2.757346342,-9.50439235,-11.09582611,14.86787779
7.823399542,-2.6788732,-9.383213484,-10.67581359,14.46354219
7.833405542,-2.345715078,-9.380192227,-9.711093178,13.70385771
7.843412542,-1.890169178,-9.338205126,-8.346651253,12.66654655
7.853418542,-1.69021209,-9.304873073,-7.079538571,11.81343922
7.863424542,-1.59602821,-9.254162511,-5.85248107,11.06518705
7.873431542,-1.478282975,-9.26440157,-4.678054358,10.48325568
7.883437542,-1.455005502,-9.358492625,-3.661616489,10.1541056
7.893443542,-1.571960486,-9.38879582,-2.954226186,9.967346642
7.903450542,-1.784659972,-9.265373377,-2.557722985,9.776200791
7.913456542,-1.952637321,-9.010016699,-2.418476222,9.531118542
7.923462542,-1.925506533,-8.800968214,-2.395513036,9.322183201
7.933468542,-1.797841204,-8.602686208,-2.519604401,9.14258439
7.943475542,-1.670125881,-8.326361414,-2.62516477,8.888706595
7.953481542,-1.478227572,-7.913596521,-2.588055416,8.456251976
7.963487542,-1.384994011,-7.474491675,-2.656179571,8.052423494
7.973494542,-1.314653176,-6.953035814,-2.717625622,7.580139117
7.983500542,-1.127020558,-6.286899957,-2.529690263,6.869834003
7.993506542,-0.6944936836,-5.711874245,-2.197033979,6.159122273
8.003512542,-0.0882568498,-4.85397895,-2.205422979,5.332240752
8.013519542,0.500028301,-4.300209621,-2.639831341,5.070556241
8.023525542,0.5574868427,-3.462262688,-3.117492726,4.692207945
8.033531542,0.1607710947,-2.360947221,-3.404198667,4.145900106
8.043538542,-0.7514111385,-0.8773168212,-3.373192052,3.565491287
8.053544542,-2.084183594,1.392644216,-2.93632552,3.860736552
8.063550542,-2.323394502,3.806215793,-1.557892377,4.723607661
8.073557542,-0.03123801872,5.994194773,1.648738813,6.216887201
8.083563542,4.263825614,8.442023433,6.729378061,11.60743286
8.093569542,9.064084733,10.86932369,12.97510836,19.20034547
8.103575542,12.28512756,12.37284398,18.75298188,25.60636555
8.113582542,13.15116685,12.81219324,22.89888699,29.35071567
8.123588542,11.40886733,12.56059807,24.61459338,29.89664002
8.133594542,7.663176647,11.79000755,24.86785968,28.56814658
8.143601542,3.382944915,10.73980318,24.8441691,27.27673783
8.153607542,0.4328464244,9.638683598,23.91104937,25.78429483
8.163613542,-0.08812908813,9.423263987,21.23659141,23.23356377
8.173620542,1.220053852,10.27711769,17.02636225,19.92497656
8.183626542,3.419089771,11.63897982,12.51047691,17.4260741
8.193632542,5.455934014,13.31127531,8.705343434,16.81488242
8.203639542,5.647273037,13.87923408,5.7644068,16.05469455
8.213645542,4.048320342,12.6071957,3.365249194,13.66218076
8.223651542,1.435332983,10.39316036,1.351997296,10.5785566
8.233657542,-1.084349186,8.30249308,-0.5326333988,8.389928655
8.243664542,-2.778336092,6.83174702,-3.130605108,8.012028902
8.253670542,-4.291025692,5.71317525,-5.926447763,9.283105947
8.263676542,-4.745966259,5.289359704,-7.111429285,10.05355401
8.273683542,-3.177935979,5.128769435,-6.037838391,8.535751018
8.283689542,-0.6596261519,4.512071201,-3.092109963,5.509540563
8.293695542,1.019673133,3.478792766,-0.3462878984,3.64165453
8.303701542,0.7649500009,2.088434812,0.4090966424,2.261430638
8.313708542,-0.7579859671,0.2978489792,-0.3926270825,0.9041088246
8.323714542,-2.256327961,-1.569351166,-1.262133778,3.024377725
8.333720542,-3.10019754,-3.556495246,-1.493388818,4.948746647
8.343727542,-3.545325602,-5.393779866,-0.9013594025,6.517257371
8.353733542,-3.99753552,-6.799103184,-0.4972960433,7.90287275
8.363739542,-4.359285795,-7.946314031,-1.095310376,9.129456947
8.373746542,-4.498984255,-8.769207893,-2.546071238,10.17950613
8.383752542,-4.439774473,-9.165714018,-4.329369978,11.06640661
8.393758542,-4.280553329,-9.329043708,-6.358553492,12.07416232
8.403764542,-3.828705354,-9.151350333,-8.288200146,12.92673428
8.413771542,-3.231828304,-8.779858012,-9.670359135,13.45535086
8.423777542,-2.815267399,-8.439515562,-10.13316859,13.48451924
8.433783542,-2.429961615,-8.247749693,-9.793909632,13.03268024
8.443790542,-2.006650391,-8.211279439,-8.842137875,12.23254503
8.453796542,-1.747854381,-8.329359866,-7.654907514,11.4468703
8.463802542,-1.732046725,-8.409908186,-6.459388726,10.74477753
8.473809542,-1.810867777,-8.603586094,-5.327296439,10.28012758
8.483815542,-1.806805424,-8.891312374,-4.351897253,10.06275267
8.493821542,-1.826676017,-9.104327025,-3.330966384,9.865133192
8.503827542,-1.98985748,-9.192635769,-2.439457785,9.716740166
8.513834542,-2.074208536,-9.317973175,-2.080068031,9.770038288
8.523840542,-1.898649248,-9.306921937,-1.958807888,9.69848407
8.533846542,-1.762991799,-9.183379626,-2.169183106,9.599372729
8.543853542,-2.009235738,-9.122185591,-2.598749388,9.695607077
8.553859792,-2.441477852,-9.046092265,-3.048322504,9.853165454
8.563865792,-2.723052422,-9.047050039,-3.562381638,10.0972616
8.573872792,-2.795482467,-8.987242963,-4.034550734,10.24025673
8.583878792,-2.725489834,-8.903549427,-4.29093009,10.25249083
8.593884792,-2.525845134,-8.919237506,-4.604818566,10.35070265
8.603890792,-1.97563866,-8.738479605,-4.917615952,10.21993741
8.613897792,-0.9204811133,-8.001622844,-5.259388046,9.61948108
8.623903792,-0.3803588931,-7.525036762,-5.918130099,9.580976726
8.633909792,-0.3687292197,-6.985214211,-6.698705907,9.685134983
8.643916792,-0.7166230559,-6.223734825,-7.64251551,9.882128673
8.653922792,-1.340267928,-5.247370264,-8.455939806,10.04161993
8.663928792,-1.703001266,-4.137044238,-8.786489339,9.859905843
8.673934792,-1.096644857,-2.629233263,-8.122236285,8.60733523
8.683941792,1.229205475,-0.5090363753,-5.576006003,5.7325306
8.693947792,5.069645898,2.436230122,-0.60435213,5.657010539
8.703953792,9.214873314,6.648414005,6.092309298,12.89308076
8.713960792,12.92999943,11.29726035,13.24970647,21.68796206
8.723966792,15.62442681,14.79221599,18.89361677,28.63391558
8.733972792,16.27376244,16.63581736,22.12626866,32.11164163
8.743979792,14.05639653,17.04458451,23.24245301,32.06730058
8.753985792,9.986811615,16.24643957,22.44361576,29.45163991
8.763991792,6.013869485,14.87358467,20.72932674,26.21249958
8.773998792,3.038081691,13.8127372,18.73147816,23.47104436
8.784004792,0.9016407998,13.11790789,16.55070178,21.13807448
8.794010792,-0.9458998369,12.71344429,14.09820412,19.00751829
8.804016792,-2.138761651,12.98733956,11.99745273,17.80966486
8.814023792,-1.838930904,13.87958257,11.00475924,17.80812188
8.824029792,-0.6287551922,14.44626431,10.88332309,18.09797246
8.834035792,0.4531969276,14.9303015,10.84689611,18.46007707
8.844042792,1.074534634,14.98449466,10.6350585,18.40636233
8.854048792,1.267827796,14.48927058,10.14820529,17.73506188
8.864054792,1.291358454,13.91979972,9.230951988,16.75228061
8.874061792,1.313077644,13.17306584,7.905703365,15.41927308
8.884067792,1.408555367,12.13045701,6.255790431,13.72103966
8.894073792,1.404827767,10.84882335,4.123248317,11.69066661
8.904079792,1.275571264,9.270483844,2.022641941,9.573924648
8.914086792,1.365650837,7.372949513,0.3810279608,7.508033633
8.924092792,1.559657359,5.248440304,-0.9646227676,5.559600147
8.934098792,1.462414801,2.946715438,-2.128953093,3.918447421
8.944105792,1.022746869,0.6074111009,-3.008021155,3.234679377
8.954111792,0.6076302253,-1.817382452,-3.593592321,4.072591219
8.964117792,0.4301219143,-4.034270652,-3.814779625,5.568921632
8.974124792,0.7002992378,-5.968142504,-3.750367867,7.083389239
8.984130792,1.102910149,-7.832323732,-3.827606662,8.787051758
8.994136792,1.362104355,-9.50402573,-4.113232037,10.44511901
9.004142792,1.409963669,-10.89043447,-4.676523557,11.93563711
9.014149792,1.232950763,-12.04053034,-5.70181528,13.37928383
9.024155792,0.9459065612,-12.95085528,-7.009402388,14.75639229
9.034161792,0.4437758937,-13.63896731,-8.527016805,16.09125172
9.044168792,-0.3380933911,-14.02484144,-9.943861477,17.19566415
9.054174792,-0.9261585405,-14.21329486,-10.96839189,17.97723953
9.064180792,-0.9477699226,-14.15762235,-11.15983441,18.05210355
9.074187792,-0.8363279126,-13.96197452,-10.49986152,17.48951883
9.084193792,-0.6739490528,-14.00971002,-9.410472618,16.89032791
9.094199792,-0.7613786678,-14.22018639,-8.489199353,16.57889937
9.104205792,-1.162196822,-14.39250968,-7.641218013,16.33656173
9.114212792,-1.608781572,-14.58271727,-6.636488024,16.10238474
9.124218792,-1.97210548,-14.55012606,-5.612565719,15.71929586
9.134224792,-1.933618375,-14.35702644,-4.636934983,15.21066252
9.144231792,-1.610230366,-14.01057424,-3.967546905,14.65027169
9.154237792,-1.24859148,-13.48956978,-3.724484582,14.04988466
9.164243792,-0.8188597213,-12.87211199,-3.674588537,13.41135337
9.174249792,-0.5821674284,-12.25921153,-3.832839335,12.85759867
9.184256792,-0.670918441,-11.77320382,-4.229201619,12.52775344
9.194262792,-0.8710235361,-11.30475765,-4.735206213,12.28732703
9.204268792,-1.038480264,-10.96651026,-5.231173477,12.19458751
9.214275792,-1.16267644,-10.63685477,-5.462275904,12.01378183
9.224281792,-1.175621006,-10.39436956,-5.453047244,11.79664052
9.234287792,-1.132709095,-10.06436791,-5.25925356,11.41202346
9.244294792,-0.9876008633,-9.515538313,-5.185554085,10.88167248
9.254300792,-0.9293291932,-8.891244546,-5.288718849,10.38693552
9.264306792,-0.8823474732,-8.427703602,-5.338135423,10.01500948
9.274312792,-0.6311249956,-7.855282239,-5.403916014,9.555421818
9.284319792,-0.3673459147,-7.063119589,-5.706713492,9.087858947
9.294325792,-0.2295324504,-6.112095106,-6.207415246,8.714493432
9.304331792,-0.368976557,-4.856528336,-7.005909262,8.532571463
9.314338792,-0.5309792215,-2.868152248,-7.566783543,8.109528311
9.324344792,0.3366436471,0.03375188291,-6.283615576,6.292717445
9.334350792,2.640071661,3.853422119,-1.919778308,5.050187042
9.344357792,7.33085073,8.788538203,5.815117947,12.83726501
9.354363792,13.36328512,14.42230476,15.14621578,24.81910789
9.364369792,18.3046817,19.64194343,23.7373286,35.83752339
9.374375792,19.71867527,22.64870802,28.48251016,41.38892985
9.384382792,16.69394921,23.90349243,29.2884202,41.32646184
9.394388792,11.68732577,23.20168388,28.51015579,38.5712419
9.404394792,6.401288452,21.37284323,27.49005055,35.40448843
9.414401792,2.558726074,19.41098894,26.76602726,33.16253588
9.424407792,0.0638413623,17.71967596,25.72366518,31.23616401
9.434413792,-1.581358131,16.56662375,23.38027422,28.69827414
9.444420792,-2.254889546,15.85591106,20.20894559,25.7855759
9.454426792,-1.359271817,15.40313074,16.72455938,22.77750959
9.464432792,0.1288837427,15.29768907,13.54411729,20.43230322
9.474439792,1.557037514,15.10504437,10.77359775,18.61873088
9.484445792,2.47945391,14.53192953,8.09446435,16.81799692
9.494451792,2.622391436,13.38456899,5.874823866,14.85049425
9.504457792,1.942458488,11.56583934,4.232435129,12.46817115
9.514464792,0.838654739,9.457425175,2.995784687,9.955950914
9.524470792,-0.0480421856,7.355098549,1.96694195,7.613714162
9.534476792,-0.3897400197,5.370958768,1.151768167,5.506874366
9.544483792,-0.2138470021,3.586676819,0.2502731091,3.601752042
9.554489542,0.1445674369,1.917082157,-0.8501734614,2.10211766
9.564495542,0.5184101929,0.2853318447,-2.012311081,2.09751264
9.574501542,1.019538355,-1.371605349,-2.882875537,3.351377486
9.584508542,1.43971781,-2.987919012,-3.587974901,4.886103896
9.594514542,1.563357477,-4.563453609,-4.188625451,6.38856624
9.604520542,1.332947506,-6.118617675,-4.770929777,7.872483868
9.614527542,0.9638278386,-7.620777901,-5.299982926,9.332472284
9.624533542,1.228149614,-8.994858962,-5.397377658,10.56160617
9.634539542,2.083745345,-10.20522617,-5.311386166,11.69185438
9.644546542,3.083765109,-11.26751089,-5.447010579,12.88938839
9.654552542,3.799286842,-12.23643545,-6.16777054,14.21992709
9.664558542,3.803339548,-13.02419339,-7.389170274,15.44975219
9.674564542,2.985406464,-13.57449591,-8.647444305,16.36941917
9.684571542,1.865770062,-14.0587284,-9.542546017,17.09354049
9.694577542,0.7605985031,-14.51683786,-9.914196213,17.59569203
9.704583542,0.06183262445,-14.91313524,-9.672013897,17.77507465
9.714590542,-0.01230060484,-15.30750187,-8.79226288,17.65286525
9.724596542,0.04476851229,-15.45723737,-7.576293454,17.21419222
9.734602542,0.03754506307,-15.52942358,-6.599576306,16.87361295
9.744609542,-0.1985804702,-15.73989996,-6.075907858,16.87307148
9.754615542,-0.7067287631,-15.8960978,-5.766234055,16.92438613
9.764621542,-0.9843935193,-15.8701502,-5.3336471,16.7713592
9.774627542,-0.8655194058,-15.730369,-4.575386314,16.40511483
9.784634542,-0.6659964741,-15.50613529,-3.828289324,15.98560547
9.794640542,-0.8314832751,-15.22087537,-3.400290388,15.61820688
9.804646542,-1.18302899,-14.96128706,-3.628537328,15.44039997
9.814653542,-1.514616403,-14.49459271,-3.976078869,15.1061737
9.824659542,-1.509877089,-13.98531426,-4.225961092,14.68766459
9.834665542,-1.228301057,-13.36300095,-4.317726125,14.09685343
9.844672542,-0.962776363,-12.56220605,-4.503918136,13.37988183
9.854678542,-0.9226001443,-11.69249237,-4.833803133,12.685867
9.864684542,-1.000769597,-10.77668508,-5.175583413,11.99688063
9.874690542,-1.10149198,-9.800755552,-5.669250966,11.37578571
9.884697542,-1.233073993,-8.578127317,-6.06966654,10.58043438
9.894703542,-1.293745434,-7.082766818,-6.131710761,9.457126408
9.904709542,-1.31355273,-5.20024346,-5.863965002,7.946951514
9.914716542,-1.22780916,-2.618397787,-5.116135941,5.876935364
9.924722542,-0.7589414021,0.888955704,-2.927460557,3.152183308
9.934728542,0.5205924468,5.123395259,1.127637293,5.271789197
9.944735542,2.368807779,9.803349962,6.85547736,12.19485509
9.954741542,4.082567484,14.04615922,13.91235037,20.18701164
9.964747542,5.587861233,16.90622535,21.40273653,27.84100896
9.974753542,6.421711607,18.22905615,27.50844589,33.61921272
9.984760542,5.88996757,18.12510786,31.29329479,36.63989017
9.994766542,4.622439151,18.17377073,33.56564208,38.44873488
10.00477254,3.154469934,18.20862949,34.155991,38.83473432
10.01477954,1.672620596,17.37900081,32.6337643,37.0106728
10.02478554,1.028993303,16.39530267,29.24575657,33.54368874
10.03479154,0.8385430571,15.40152627,23.95499705,28.49126268
10.04479854,0.2495359214,14.75655733,17.56834301,22.94482356
10.05480454,-0.4429531174,14.28672888,11.53079814,18.36480698
10.06481054,-0.811907528,13.96799715,6.579360727,15.46131061
10.07481654,-1.024307125,13.50597122,3.038811423,13.88145664
10.08482354,-0.7264632621,12.65038908,1.712485158,12.78642633
10.09482954,0.02552486876,11.50107792,1.905406437,11.65787367
10.10483554,0.5709108439,10.08627041,2.628752621,10.43882802
10.11484254,0.9995790307,8.209056328,3.787702339,9.095848121
10.12484854,1.744428497,6.464989774,4.526821972,8.082774321
10.13485454,2.354970343,4.943396911,4.268677341,6.942957913
10.14486154,2.723979498,3.455577566,3.255996893,5.473810043
10.15486754,2.934442132,1.922277993,1.595979386,3.853991893
10.16487354,3.197428257,0.2515402007,0.1520048028,3.210907254
10.17488054,3.321893259,-1.645103014,-0.8033127058,3.792973775
10.18488654,2.858702563,-3.906579157,-1.390978344,5.036701481
10.19489254,1.940661347,-6.469820158,-1.662630043,6.956225845
10.20489854,0.9946106516,-8.925558347,-2.121825922,9.228054366
10.21490554,0.20776926,-11.02047187,-3.638638685,11.60748293
10.22491154,-0.2033418944,-12.48514326,-6.000803297,13.85387276
10.23491754,-0.6384628858,-13.37074149,-8.601806787,15.91148777
10.24492454,-1.78795327,-13.90347196,-10.54882844,17.54369091
10.25493054,-2.994029937,-14.30312213,-11.49230008,18.59076327
10.26493654,-3.258399514,-14.49604165,-11.77157596,18.955801
10.27494254,-2.381331638,-14.15066417,-11.38227185,18.31578961
10.28494954,-0.5604127894,-13.23701567,-10.37957026,16.83057115
10.29495554,0.7929359445,-12.48635714,-9.770475161,15.87450935
10.30496154,0.9235839383,-11.96119882,-9.573529243,15.34847702
10.31496854,-0.005213377476,-11.74896712,-8.677565652,14.60610835
10.32497454,-1.341579751,-12.28334182,-7.115963216,14.25893597
10.33498054,-2.888568679,-13.17403414,-5.247143392,14.47174897
10.34498754,-4.57328424,-13.84750709,-3.353041669,14.96366498
10.35499354,-5.671000453,-14.33540461,-1.794939962,15.52049873
10.36499954,-5.682476199,-14.47736448,-0.519684155,15.5613203
10.37500654,-5.004278705,-14.35134879,0.123554298,15.19931851
10.38501254,-4.363320959,-13.84970798,0.1882262573,14.52199745
10.39501854,-4.036018385,-13.06684766,-0.1698256543,13.67701696
10.40502454,-3.881541379,-12.32721698,-1.129891394,12.97317604
10.41503154,-3.818127156,-11.6455018,-2.304462241,12.47021866
10.42503754,-3.644265169,-11.1718633,-3.2694221,12.19755382
10.43504354,-3.686291154,-10.78310298,-3.81061173,12.01602323
10.44505054,-3.811637916,-10.46534657,-3.920587623,11.80775465
10.45505654,-3.926699426,-10.30244782,-3.672340867,11.62090732
10.46506254,-3.976547524,-10.27912094,-3.269724109,11.49627563
10.47506854,-4.271344841,-10.27537522,-3.077299551,11.54545344
10.48507554,-4.637402468,-9.904729571,-2.926011032,11.32125038
10.49508154,-5.185999643,-9.079022614,-2.719928255,10.80376109
10.50508754,-5.337712669,-7.950546831,-2.360136797,9.86268813
10.51509454,-4.932769012,-5.968886855,-2.256593717,8.065484214
10.52510054,-5.432223555,-2.551558265,-2.868429406,6.651871134
10.53510654,-5.482061713,2.248802887,-3.566704777,6.916031956
10.54511354,-2.800880032,7.861776742,-1.30516987,8.447243981
10.55511996,3.855833803,13.2897061,5.015395432,14.71862541
10.56512596,13.9184841,18.89947334,15.98517896,28.39789145
10.57513196,23.47807241,23.64544779,27.71211143,43.33922248
10.58513896,29.82322759,25.5476406,35.23294989,52.75857847
10.59514496,31.11063479,25.42281424,36.99857513,54.61763124
10.60515096,27.70898434,23.88669923,33.87860377,49.86102693
10.61515796,21.55017758,21.64781907,28.59639287,41.84246538
10.62516396,15.79667408,18.9465598,23.67982708,34.19416984
10.63516996,11.64009196,16.08509034,19.33356011,27.71296481
10.64517696,8.674688821,13.84207619,15.40840259,22.45600521
10.65518296,6.641878572,12.30276627,11.85067592,18.32787845
10.66518896,5.276454315,11.10292697,8.813169599,15.12573687
10.67519596,4.469030139,9.785275049,6.674351084,12.65981045
10.68520196,3.982345623,8.221701517,5.222816636,10.52298751
10.69520796,3.553400899,6.572426514,4.03674227,8.492275101
10.70521396,3.330446274,4.772761125,3.009329762,6.551884214
10.71522096,3.54466779,3.291387166,2.410859638,5.404640914
10.72522696,2.896320917,0.4503309149,0.9109453279,3.069412677
10.73523296,2.314936943,-1.237382514,-1.061740342,2.831490966
10.74523996,1.550445364,-2.755611473,-3.184136367,4.487315436
10.75524596,0.5721497592,-4.225675163,-5.16068997,6.694505725
10.76525196,-0.4288654938,-5.921444301,-7.428630209,9.509572809
10.77525896,-1.57358952,-7.304052941,-9.55836449,12.13209401
10.78526496,-2.815919071,-8.134732955,-11.21711607,14.13955351
10.79527096,-3.772528814,-8.815599117,-12.3100519,15.60397831
10.80527696,-4.278451547,-9.296088216,-12.85283957,16.42917797
10.81528396,-4.515980942,-9.562294403,-12.92077369,16.6966449
10.82528996,-4.592116368,-9.789276883,-12.63807134,16.63244786
10.83529596,-4.413141282,-9.965583884,-12.42445033,16.52742098
10.84530296,-4.24416669,-10.0545329,-12.14498149,16.32810945
10.85530896,-4.141820536,-9.995874799,-11.76779398,15.98603032
10.86531496,-4.336341029,-9.75697394,-11.40342357,15.62179449
10.87532196,-4.390514312,-9.45318419,-10.76352417,14.98308245
10.88532796,-4.078487881,-9.11399832,-9.778497541,13.97562317
10.89533396,-3.695245288,-8.912301539,-8.607599038,12.92960625
10.90533996,-3.465076953,-8.945949926,-7.798546706,12.36341818
10.91534696,-3.408863868,-8.986676953,-7.071993324,11.93288754
10.92535296,-3.42975977,-8.911927902,-6.14905828,11.35766828
10.93535896,-3.401146128,-8.828433171,-5.220011727,10.80544074
10.94536596,-3.183076559,-8.785936192,-4.465718569,10.35699249
10.95537196,-2.699863242,-8.509864583,-3.701920761,9.664950805
10.96537796,-2.258826184,-8.142337843,-3.135762352,9.012933308
10.97538496,-1.977226617,-8.006179579,-2.958993421,8.7615055
10.98539096,-1.877451776,-7.935186195,-2.98537255,8.683573826
10.99539696,-1.870439503,-7.78660903,-3.168275794,8.612072668
11.00540296,-1.630375632,-7.517446491,-3.012945095,8.261232632
11.01540996,-1.241590755,-7.08397193,-2.769042528,7.706607712
11.02541596,-0.9671791703,-6.612830774,-3.011519544,7.330362635
11.03542196,-0.6622813725,-6.148402222,-3.329992238,7.023554286
11.04542896,-0.3675521752,-5.83236314,-3.357421526,6.739720595
11.05543496,-0.2325958067,-5.086057863,-3.386497976,6.114773417
11.06544096,-0.01455605865,-3.723867701,-3.583059146,5.167757287
11.07544796,-0.3878136545,-1.91167933,-3.981294293,4.433466087
11.08545396,-1.410586982,0.0149425596,-4.513638255,4.728943773
11.09545996,-1.565920166,2.549618159,-3.566444283,4.655339252
11.10546596,-0.007165762782,5.197505209,0.3749603051,5.211017844
11.11547296,3.081498729,7.509696007,6.881319714,10.64160371
11.12547896,7.23035288,9.787045001,14.48562075,18.91817806
11.13548496,10.69419724,11.45704137,21.07976908,26.2675906
11.14549196,11.70780038,12.07686143,24.8323624,29.99282237
11.15549796,9.963046192,11.93115232,24.54329711,29.0514736
11.16550396,6.687584503,12.06126924,21.67139504,25.68749433
11.17551096,3.735753921,12.44568625,18.63752159,22.72021511
11.18551696,2.546654498,12.21566848,16.76101092,20.89592048
11.19552296,2.613527934,11.2392396,15.67291192,19.46255901
11.20552896,2.773953019,10.1558745,14.48961323,17.91048558
11.21553596,2.094405111,9.641837586,12.60084563,16.00415181
11.22554196,0.9706800444,9.570054243,10.11360147,13.95754608
11.23554796,-0.4596255027,9.934355074,8.062802846,12.80279095
11.24555496,-1.741167797,10.00844748,6.940815718,12.30347955
11.25556096,-2.115116388,9.768516929,6.953373199,12.17567407
11.26556696,-1.544544938,9.400296124,7.784529176,12.30244207
11.27557396,-0.4965110546,8.723211356,8.314593893,12.06123589
11.28557996,0.5440310839,8.048276024,7.988878838,11.35310098
11.29558596,1.108606945,7.347580783,6.595246443,9.935453103
11.30559196,1.257950387,6.504309375,4.649705887,8.093716357
11.31559896,0.8776688236,5.235982227,2.671248431,5.943179336
11.32560496,0.2928996035,3.768231111,0.9997978628,3.909597377
11.33561096,-0.2806876937,2.227283379,-0.5571379101,2.313002266
11.34561796,-0.6029400274,0.6965279299,-1.936639924,2.144589012
11.35562396,-0.7927456176,-0.6316209126,-3.177719632,3.335459886
11.36562996,-0.8175658786,-1.710497689,-4.2077476,4.615122553
11.37563696,-0.8966608724,-2.864638072,-4.943648341,5.78358115
11.38564296,-1.117847007,-4.102927489,-5.422633536,6.891193683
11.39564896,-1.337464334,-5.26331796,-5.891458025,8.012527969
11.40565496,-1.393547026,-6.299243429,-6.376987424,9.071295922
11.41566196,-1.358394735,-7.235491998,-6.926174875,10.10789192
11.42566796,-1.396999222,-8.064562274,-7.527019553,11.1195681
11.43567396,-1.549195521,-8.746655182,-8.211982275,12.0971334
11.44568096,-1.586137791,-9.210771493,-9.067180248,13.02182408
11.45568696,-1.554842762,-9.408006263,-10.0074441,13.82306244
11.46569296,-1.606082351,-9.501014999,-10.73255965,14.42347473
11.47569996,-1.720423923,-9.666658432,-11.05739587,14.78749969
11.48570596,-1.752725257,-9.808441132,-10.74550539,14.65412738
11.49571196,-1.738887237,-10.0677862,-9.85040543,14.19205887
11.50571796,-1.10356913,-10.33192013,-8.638019178,13.51228381
11.51572496,-0.7198539349,-10.435831,-7.528768455,12.88825484
11.52573096,-2.204359078,-10.46927123,-7.198386737,12.89502271
11.53573696,-2.618272657,-10.77902046,-6.335317242,12.77414883
11.54574396,-2.856364846,-11.02849425,-4.098219895,12.10710172
11.55575042,-2.856145576,-10.94330851,-4.063807277,12.01782419
11.56575642,-2.735506115,-11.18663337,-3.587909997,12.06220784
11.57576342,-2.570631883,-11.04663933,-3.331218399,11.8208885
11.58576942,-2.475049787,-10.50606074,-3.119967853,11.23554107
11.59577542,-2.157900319,-9.969471112,-2.754205803,10.56563002
11.60578142,-1.732088095,-9.345306569,-2.577062066,9.84764606
11.61578842,-1.63455376,-8.787655858,-2.755055988,9.35334138
11.62579442,-1.675608231,-8.260569128,-3.065520335,8.968950897
11.63580042,-1.808715563,-7.791882634,-3.386581006,8.68641571
11.64580742,-1.772143422,-7.307066596,-3.6828565,8.372403868
11.65581342,-1.537723576,-6.706579767,-4.063639462,7.990993158
11.66581942,-1.334755465,-6.031196539,-4.395842003,7.581578381
11.67582642,-1.296163696,-5.364192955,-4.588593128,7.177032345
11.68583242,-1.29292083,-4.694956904,-4.679827818,6.753891694
11.69583842,-1.764160803,-3.922732674,-4.727390825,6.391268965
11.70584442,-2.456941837,-2.542953503,-5.076347977,6.186475935
11.71585142,-3.165393409,-0.2871053052,-5.535780083,6.383338156
11.72585742,-3.418546272,2.317743899,-5.24136108,6.673099832
11.73586342,-2.195236545,5.139792606,-2.683172657,6.199673139
11.74587042,0.7500925183,8.003007465,2.341164336,8.372085625
11.75587642,4.981469886,10.62353013,9.190583396,14.90440397
11.76588242,9.979879156,12.79240041,16.59960789,23.21186073
11.77588942,13.22273677,13.99515513,22.10865918,29.31719539
11.78589542,13.53671822,14.46700789,24.22216335,31.29297452
11.79590142,11.28894912,14.33956315,24.07911005,30.21368869
11.80590742,8.296209662,13.61539367,22.95542956,27.9492001
11.81591442,5.910723431,12.67548182,21.64108541,25.76705394
11.82592042,4.346475715,11.70659819,19.98328049,23.56412085
11.83592642,3.196171691,10.74660233,17.98724572,21.19542365
11.84593342,1.89590208,10.04931016,15.66915567,18.71110683
11.85593942,1.03807476,9.650672729,13.32661139,16.48671145
11.86594542,1.061832874,9.318410547,11.38354888,14.749422
11.87595242,1.431527469,9.060999157,9.99186361,13.56422924
11.88595842,1.66927058,8.701353879,8.94373734,12.58929947
11.89596442,1.732636125,8.002865378,8.216108655,11.59966912
11.90597042,1.516232428,6.915654564,7.545130134,10.34670129
11.91597742,0.8904943988,5.715094891,6.541967198,8.732274888
11.92598342,-0.07799250126,4.406060597,5.044485329,6.698229994
11.93598942,-0.9065034905,3.020151204,3.39373332,4.63254657
11.94599642,-1.586277393,1.767268306,1.54499342,2.833110993
11.95600242,-2.187961439,0.5876024884,-0.4183864063,2.303801017
11.96600842,-2.852713845,-0.6443994176,-2.305944217,3.724326197
11.97601542,-3.40161946,-1.829082146,-4.069674373,5.610597647
11.98602142,-3.611403232,-2.755345425,-5.331652615,7.004333039
11.99602742,-3.398586802,-3.294860997,-6.119308816,7.736435977
12.00603342,-2.939452611,-4.22670018,-6.73432656,8.476823124
12.01604042,-2.384755037,-4.603681868,-7.292114096,8.947394666
12.02604642,-2.377416196,-4.843918231,-7.809299151,9.492144374
12.03605242,-3.336734954,-5.557100201,-8.800335546,10.92982472
12.04605942,-4.229026495,-6.278043764,-9.762427638,12.35327859
12.05606542,-4.175211353,-6.194436767,-10.26648979,12.69662354
12.06607142,-3.543034663,-5.585379674,-10.32259265,12.25991353
12.07607842,-2.579506786,-5.287044207,-10.30373889,11.86481044
12.08608442,-1.691482836,-5.060426593,-10.41069265,11.69835685
12.09609042,-1.199452503,-4.745230095,-10.52427598,11.60673425
12.10609642,-1.115535311,-4.40349133,-10.41230063,11.36006864
12.11610342,-1.361201983,-4.258402614,-10.15042957,11.09135177
12.12610942,-1.62877408,-4.340180603,-9.58018279,10.64283679
12.13611542,-1.595190597,-4.339846727,-8.61508172,9.777450368
12.14612242,-1.66205263,-4.354458334,-7.682375395,8.985689625
12.15612842,-1.656518679,-4.407500766,-6.793191065,8.265443846
12.16613442,-1.503082186,-4.368668822,-5.822486023,7.432756341
12.17614142,-1.395886351,-4.258952252,-4.945008988,6.673850979
12.18614742,-1.04454982,-4.199724051,-4.177866574,6.01525856
12.19615342,-0.631149627,-4.210786398,-3.525439514,5.52791061
12.20615942,-0.2452971286,-4.147733533,-2.924849775,5.081201664
12.21616642,0.03571552411,-4.271182873,-2.557600193,4.978513582
12.22617242,0.09227461785,-4.332757562,-2.517198272,5.011745189
12.23617842,0.05117483139,-4.226292045,-2.542738325,4.932512696
12.24618542,0.1421355799,-4.11887343,-2.405073234,4.771760484
12.25619142,0.3512278455,-3.957789656,-2.137930323,4.512006873
12.26619742,0.5029121478,-3.571338403,-1.730116267,4.000085113
12.27620342,0.4763997026,-3.129670722,-1.257665336,3.406393636
12.28621042,0.2947935167,-2.471773592,-1.07945799,2.713263249
12.29621642,-0.07404723868,-1.327924309,-1.059423675,1.700365986
12.30622242,-0.2155812497,0.5902653104,-0.5883643806,0.8608490322
12.31622942,-0.2118233904,2.967344415,0.5157787997,3.019276369
12.32623542,0.1453021395,5.131873721,2.190878615,5.581862566
12.33624142,1.430145041,6.853693374,4.763576319,8.468180858
12.34624842,3.996648497,8.1619687,8.266213446,12.28499967
12.35625442,6.712046914,9.082699344,12.19431094,16.6207166
12.36626042,8.432804128,9.43388487,15.33593103,19.88218172
12.37626642,8.374284609,9.444903948,16.2107739,20.54565754
12.38627342,6.410432913,9.560328569,15.09448663,18.98254617
12.39627942,3.67650233,9.675081346,13.07748492,16.67766411
12.40628542,1.349951502,9.391990739,11.11254915,14.61234436
12.41629242,-0.4154291039,8.821444579,9.373109495,12.87810729
12.42629842,-1.780607121,8.367871968,8.183655438,11.83909031
12.43630442,-2.412472739,7.979691108,7.563542431,11.25622801
12.44631142,-2.259296008,7.447464091,7.373412028,10.72083694
12.45631742,-2.080457017,7.04493241,7.379262752,10.41215121
12.46632342,-2.156137237,6.332686579,7.237564836,9.855668006
12.47633042,-2.581634004,5.384233117,6.94708101,9.160607782
12.48633642,-2.936477548,4.078288491,6.019475795,7.841519384
12.49634242,-2.920198315,2.702087231,4.310045223,5.86560512
12.50634842,-2.620667676,1.515562044,1.936805985,3.593889926
12.51635542,-2.019046196,0.3180949634,-0.5946881443,2.128705225
12.52636142,-1.569522635,-0.9967286593,-2.596104108,3.193215599
12.53636742,-1.290601386,-2.257787134,-3.848824453,4.645073127
12.54637442,-1.224344831,-3.457667361,-4.452262371,5.768632773
12.55637979,-1.280578381,-4.672131713,-4.687046791,6.74070496
12.56638579,-1.392100425,-5.719579706,-4.875206097,7.643243428
12.57639179,-1.414007895,-6.444111121,-4.966706836,8.257975736
12.58639879,-1.317761702,-6.760099917,-4.890968437,8.44730839
12.59640479,-1.333716269,-6.786717612,-5.012726762,8.542000037
12.60641079,-1.478050109,-6.677722589,-5.56743457,8.818896688
12.61641779,-1.608192758,-6.395474566,-6.732136193,9.423907713
12.62642379,-1.463705866,-5.923514215,-8.191743307,10.21445613
12.63642979,-0.8899466608,-5.291019144,-9.524042503,10.93134366
12.64643679,0.03820629179,-4.655221565,-10.69614553,11.66533655
12.65644279,0.7823203245,-4.030993288,-11.93541845,12.62201036
12.66644879,0.9315114471,-3.573424689,-12.94664528,13.46301235
12.67645479,0.5425037912,-3.540628826,-13.16780686,13.64629988
12.68646179,-0.07592317164,-3.842921689,-12.3472589,12.93169029
12.69646779,-0.6104721183,-4.293212843,-10.7244519,11.5679826
12.70647379,-1.061557032,-4.593993616,-8.760015485,9.948344183
12.71648079,-1.51426864,-4.80877588,-6.847648523,8.503389046
12.72648679,-1.995800883,-5.187284861,-5.159671969,7.58375634
12.73649279,-2.501113751,-5.405378988,-3.929896683,7.135669551
12.74649979,-2.998185846,-5.480571257,-3.161548573,7.001511912
12.75650579,-3.003266199,-5.375426041,-2.741483431,6.740218423
12.76651179,-2.337085611,-5.06473833,-2.602964061,6.15540132
12.77651779,-1.487560167,-4.633184579,-2.718271154,5.573888469
12.78652479,-0.9836823517,-4.49887579,-3.364277387,5.703146208
12.79653079,-0.8067143235,-4.571070192,-4.486658033,6.455661933
12.80653679,-1.153660765,-4.840204664,-5.837334443,7.670266472
12.81654379,-1.295024658,-5.347703807,-6.856418762,8.791217385
12.82654979,-0.699837454,-5.358129977,-6.6566463,8.573812995
12.83655579,-0.432662091,-4.884078078,-6.130096929,7.849809139
12.84656279,-0.6671700834,-5.164531006,-6.398806894,8.2499834
12.85656879,-1.505218028,-5.652034425,-6.85372261,9.010254606
12.86657479,-2.682792296,-6.105919277,-7.667198946,10.16196656
12.87658079,-3.830698377,-6.2576095,-8.420847157,11.16882239
12.88658779,-4.683058113,-5.710773214,-9.099603059,11.71950254
12.89659379,-3.589425595,-3.535531808,-9.025511236,10.33652816
12.90659979,-0.1903186834,0.7844846714,-6.279457036,6.331130868
12.91660679,5.581352112,5.788610764,-0.1574549925,8.042654913
12.92661279,12.68467365,11.22048641,7.673573581,18.59257896
12.93661879,17.99587738,16.21007457,15.28973335,28.64252199
12.94662579,20.16657667,18.95226201,20.18703023,34.25485716
12.95663179,18.74892625,20.6032865,22.25261763,35.65384469
12.96663779,16.082072,21.1847266,23.58698733,35.54956613
12.97664379,14.15016131,20.62855582,26.0526459,36.11792822
12.98665079,11.90017494,18.56267372,28.45395704,35.99742616
12.99665679,8.194532429,15.94148272,28.91299387,34.01826638
13.00666279,3.468284443,13.5633441,27.26800137,30.65187105
13.01666979,-0.422877945,11.35059397,23.95507891,26.51151853
13.02667579,-2.478625944,10.01945428,19.50048759,22.06359143
13.03668179,-2.4716891,9.54689693,14.69518379,17.69748328
13.04668879,-1.483979771,9.514734321,10.51333818,14.2570209
13.05669479,-0.6396558639,9.384319777,6.878286763,11.65270124
13.06670079,-0.705543167,8.744205199,4.102738624,9.68459498
13.07670679,-1.557852616,7.328321809,2.55940172,7.91718021
13.08671379,-2.73119964,5.496889082,2.107075735,6.489607786
13.09671979,-3.675876094,3.619945137,1.991465172,5.530099581
13.10672579,-4.028095407,1.973269807,1.758969353,4.818020291
13.11673279,-3.946670591,0.2990967751,1.035803847,4.091278192
13.12673879,-3.648264372,-1.3682853,-0.1681185597,3.900038646
13.13674479,-3.176473591,-2.802976259,-1.769491417,4.591052195
13.14675179,-2.520490254,-4.209392422,-3.58143479,6.07441609
13.15675779,-1.911573349,-5.673828751,-5.160892868,7.904508876
13.16676379,-1.390567577,-7.150365894,-6.553425987,9.798408175
13.17676979,-1.261556365,-8.259193279,-7.424319057,11.17704395
13.18677679,-1.693242556,-9.333573546,-8.133108598,12.49520392
13.19678279,-2.164476828,-10.43462764,-8.885354646,13.87501139
13.20678879,-2.562640493,-11.2336368,-9.534930019,14.95582203
13.21679579,-2.518600726,-11.71888436,-10.00299905,15.61203351
13.22680179,-2.390692299,-11.8909609,-10.29778292,15.91083574
13.23680779,-2.306129574,-12.00901618,-10.52424675,16.13364413
13.24681479,-2.063033776,-12.1508556,-10.48940436,16.18415905
13.25682079,-1.377513084,-12.01382727,-9.867382236,15.60752448
13.26682679,-0.6522745939,-11.61162421,-8.560956384,14.44109598
13.27683279,-0.102218539,-11.49015064,-7.043458326,13.47754857
13.28683979,0.1730771448,-11.41332057,-5.418352205,12.63536239
13.29684579,0.03252060547,-11.38940194,-3.950184767,12.05501945
13.30685179,-0.2064394569,-11.29378009,-2.714840885,11.6173339
13.31685879,-0.3475979671,-11.15621615,-1.653756016,11.28347873
13.32686479,-0.7552303205,-11.18710349,-1.22051739,11.27879958
13.33687079,-1.234852424,-11.15849891,-1.395671319,11.31303924
13.34687679,-1.434528845,-10.9504386,-1.935449139,11.21231207
13.35688379,-1.480685303,-10.75178296,-2.674308863,11.1778886
13.36688979,-1.469124189,-10.46037995,-3.320564187,11.07267001
13.37689579,-1.604818037,-10.21468229,-3.84378123,11.03131131
13.38690279,-1.758600101,-10.0553328,-4.259300162,11.06092355
13.39690879,-2.100050598,-9.784906674,-4.391848647,10.92899564
13.40691479,-2.620564473,-9.496337811,-4.379525932,10.78091079
13.41692179,-2.894938343,-9.11864861,-4.531656158,10.58613848
13.42692779,-2.936564671,-8.584069258,-4.828506725,10.27736028
13.43693379,-2.98031734,-7.964490101,-5.206433322,9.971075266
13.44693979,-3.434814688,-7.23829223,-5.873867846,9.934442602
13.45694679,-4.491496603,-6.307283351,-7.226673228,10.5915141
13.46695279,-5.79844695,-4.636067256,-8.932506008,11.61485128
13.47695879,-6.478517307,-1.715167276,-10.44650802,12.41138651
13.48696579,-5.391045708,2.18301294,-10.44701789,11.95696877
13.49697179,-2.572513517,7.224384043,-8.027964551,11.10215139
13.50697779,2.323644616,13.34726492,-1.693927265,13.65350485
13.51698479,9.543979754,19.74575724,9.533805599,23.91392748
13.52699079,16.41473647,24.94001198,21.3545087,36.70780316
13.53699679,19.38333862,27.27446371,28.3362175,43.84690878
13.54700279,14.83312545,26.83009169,31.27452757,43.79465156
13.55700979,9.788892721,25.02047434,31.92049521,41.72247082
13.56701579,7.91560504,23.22835888,30.19635947,38.91058448
13.57702179,8.152148886,21.06298991,26.93908379,35.15425026
13.58702879,7.720020354,18.39803016,22.85389617,30.33787729
13.59703479,5.416853564,15.7117234,17.96280202,24.47167365
13.60704079,2.580366035,13.37818383,13.79768647,19.39098356
13.61704779,1.000028682,11.49657439,11.51097374,16.29950296
13.62705379,1.552637338,10.16389454,10.95951114,15.02751874
13.63705979,3.207886295,9.25576991,11.06664383,14.77939162
13.64706579,4.483957204,8.418265026,10.65027179,14.29689992
13.65707279,4.817812752,7.1539134,9.030090775,12.48728698
13.66707879,4.138784077,5.188382383,6.418669301,9.232993067
13.67708479,2.930668924,3.020241251,3.737478849,5.628447895
13.68709179,1.892164394,1.00970597,1.203773303,2.459443515
13.69709779,1.157154914,-0.9706395525,-1.143763329,1.894556198
13.70710379,0.6331765643,-2.899336034,-3.466273293,4.563125304
13.71711079,0.2676073261,-4.544189372,-5.46295652,7.110918694
13.72711679,-0.05577001199,-5.905225294,-6.989124829,9.15000885
13.73712279,-0.4162894486,-7.194289593,-8.175600899,10.89823608
13.74712879,-0.2931758845,-8.290976989,-8.614443204,11.9597192
13.75713579,0.1758159075,-9.220380807,-8.379095113,12.46015924
13.76714179,0.4956420853,-10.04258353,-7.811322287,12.73247426
13.77714779,0.6248779035,-10.7952687,-7.085317959,12.92787799
13.78715479,0.5341648576,-11.53273474,-6.403109275,13.20186014
13.79716079,0.2169185445,-12.30762881,-5.780580783,13.59926082
13.80716679,-0.09453485906,-13.06835624,-5.392310461,14.13746384
13.81717379,-0.30423074,-13.83631318,-5.700022523,14.96751066
13.82717979,-0.646528535,-14.6225602,-6.727124544,16.10873895
13.83718579,-1.024680689,-15.16773354,-8.071289495,17.2120837
13.84719179,-1.453497066,-15.36902043,-9.295417541,18.02010627
13.85719879,-1.710865771,-15.47045675,-9.85878332,18.42437794
13.86720479,-1.642750825,-15.42513615,-9.329667606,18.10182735
13.87721079,-1.188657812,-15.18476881,-7.796380312,17.11062995
13.88721779,-0.575141414,-14.98525597,-6.143114001,16.20575619
13.89722379,-0.02068827124,-14.70400139,-4.393498439,15.34636482
13.90722979,0.02738587305,-14.46411001,-3.009151422,14.77383568
13.91723579,-0.341167784,-14.1964923,-2.32212551,14.38919929
13.92724279,-1.157025033,-13.98258595,-2.205393451,14.20264684
13.93724879,-1.907956846,-13.70993613,-2.374905986,14.04431652
13.94725479,-2.058304402,-13.11814646,-2.514476101,13.51462073
13.95726179,-1.582118561,-12.40734138,-2.508521296,12.75687651
13.96726779,-1.157137519,-11.49938456,-2.408633603,11.80577521
13.97727379,-0.9769694558,-10.65056298,-2.476142632,10.97817122
13.98728079,-0.8534215897,-9.868334162,-2.900180957,10.32101725
13.99728679,-0.9404536671,-8.801699701,-3.448022963,9.49964384
14.00729279,-1.022342753,-7.639678441,-3.867874097,8.623822901
14.01729879,-0.8804808958,-6.535586717,-3.824038106,7.623149466
14.02730579,-0.5994850539,-5.143532485,-3.341319464,6.162769224
14.03731179,-0.0556372802,-3.310624505,-2.642109124,4.236044233
14.04731779,0.4236847146,-1.232210067,-1.641853716,2.09607586
14.05732479,0.3153422405,0.9686684561,-0.4277244097,1.104856315
14.06733079,-0.3605510116,3.426621569,0.8257858944,3.543113709
14.07733679,-0.7854190564,6.740191317,2.222392184,7.140454405
14.08734379,0.9073827656,10.97546468,4.882260178,12.04660255
14.09734979,4.383872752,15.52511536,9.249190038,18.59556569
14.10735579,8.258416768,19.42384346,15.10790015,25.95642096
14.11736179,10.97677914,22.08617781,21.32890491,32.60691821
14.12736879,11.19878155,23.0175878,26.14072134,36.58632762
14.13737479,8.729610549,22.38078392,28.83443536,37.53039104
14.14738079,5.443463657,21.15018827,29.762047,36.91532476
14.15738779,3.489035919,19.73851137,29.10715183,35.34131422
14.16739379,2.226488158,18.22755108,26.00969459,31.83873554
14.17739979,1.014991414,16.85662693,20.75701681,26.75873364
14.18740679,-0.8936885865,15.71173041,15.18969568,21.87199137
14.19741279,-2.502098422,14.5971903,10.17082466,17.96619424
14.20741879,-2.660359746,13.66083122,5.93629272,15.13061118
14.21742479,-1.649500997,12.72894409,2.991948913,13.17947758
14.22743179,-0.5067609313,11.74006531,1.561849773,11.85433739
14.23743779,0.9176184627,10.33000809,1.332288086,10.45591136
14.24744379,1.791342901,8.49927586,1.211047239,8.770019096
14.25745079,1.752727596,6.528322136,0.6238283283,6.788240252
14.26745679,1.398606329,4.544240828,-0.5116629446,4.782052209
14.27746279,1.180926112,2.526863135,-1.878282958,3.362673141
14.28746979,1.083716371,0.6475779641,-3.331361071,3.562550347
14.29747579,0.9147567623,-1.083497247,-4.838721811,5.042219251
14.30748179,0.6065058788,-2.594796086,-6.120692267,6.675604088
14.31748779,0.481445265,-3.870400679,-7.222011827,8.207877058
14.32749479,0.6315875103,-5.3450404,-7.961422652,9.610026551
14.33750079,0.4378485712,-6.77451038,-7.948809623,10.45319457
14.34750679,-0.030398724,-7.9771043,-7.611901828,11.02615829
14.35751379,-0.5567261931,-9.015360469,-7.464460777,11.71771493
14.36751979,-0.7951817138,-9.841199573,-7.432824417,12.35833329
14.37752579,-0.9910893852,-10.63920418,-7.577517861,13.09937787
14.38753279,-1.164886542,-11.13252791,-7.803906848,13.64518598
14.39753879,-1.204208482,-11.40618345,-8.169822096,14.08180145
14.40754479,-1.220897605,-11.68949509,-8.830714754,14.70089825
14.41755079,-1.117330552,-11.79083786,-9.47740745,15.1688344
14.42755779,-0.8407185137,-11.76876813,-9.807973355,15.34298055
14.43756379,-0.5353228622,-11.74835784,-9.76098513,15.2835635
14.44756979,-0.1940676257,-11.60239964,-9.250126762,14.83975016
14.45757679,0.1826752396,-11.50987096,-8.322885829,14.2049614
14.46758279,0.6365354242,-11.45938259,-7.170800743,13.53303403
14.47758879,1.176205582,-11.39735299,-5.867858663,12.87302917
14.48759479,1.755280491,-11.37932953,-4.451401076,12.34443687
14.49760179,2.149347596,-11.36774854,-2.967819209,11.9437579
14.50760779,2.096137641,-11.40460704,-1.851541302,11.7425321
14.51761379,1.687014394,-11.35512323,-1.032228275,11.52607202
14.52762079,1.255981337,-11.24471844,-0.6240592933,11.33184151
14.53762679,0.8897051708,-11.16530974,-0.6217221612,11.21794346
14.54763279,0.5054911353,-10.98236206,-0.7919082963,11.02247325
14.55763942,0.3334940444,-10.69907031,-1.032477951,10.75394507
14.56764542,0.1372168381,-10.4741899,-1.353887116,10.56222008
14.57765142,-0.2380652009,-10.27295447,-1.867963207,10.44411581
14.58765742,-0.6273059598,-9.958306439,-2.4959185,10.28547466
14.59766442,-1.054570047,-9.465442877,-3.135471745,10.02685942
14.60767042,-1.507002013,-8.771063215,-3.58527758,9.594624553
14.61767642,-2.018725476,-8.167602493,-4.292949718,9.44533749
14.62768342,-2.479932797,-7.279582343,-5.363900594,9.376236737
14.63768942,-3.184819029,-6.110653183,-6.730121827,9.632117855
14.64769542,-4.527247649,-4.60126112,-8.349176665,10.55349829
14.65770242,-5.279780796,-2.645061675,-9.024420145,10.78483173
14.66770842,-4.380426403,-0.6275009644,-7.601590263,8.795798285
14.67771442,-2.135594068,1.860661789,-3.139239106,4.228196599
14.68772042,0.2999384452,5.211449649,3.097676513,6.069989315
14.69772742,3.568982267,8.563675924,9.760647161,13.46641796
14.70773342,7.063748749,11.34606706,15.65204321,20.58193967
14.71773942,9.100543876,13.73029848,20.34101081,26.17437135
14.72774642,9.219468641,15.73811422,23.78591896,29.97426866
14.73775242,7.833402543,16.67239286,26.61997785,32.37211917
14.74775842,6.236109288,16.2979208,29.48283076,34.26001447
14.75776542,4.888899107,15.53769389,30.89572623,34.92659681
14.76777142,3.763391955,15.13543586,29.70329184,33.54892076
14.77777742,2.643376508,14.62156851,25.74594307,29.72593631
14.78778342,1.100904115,13.77027706,20.25061753,24.51367028
14.79779042,-0.8439306816,12.89127215,14.38400549,19.33382349
14.80779642,-2.155168499,12.17146587,9.624990588,15.66619853
14.81780242,-2.251606481,11.35276446,6.365681832,13.20897036
14.82780942,-1.663836031,10.46196688,4.752181849,11.61052685
14.83781542,-0.9986338283,9.290356191,4.40572906,10.33046157
14.84782142,-0.5411207785,7.916607837,4.668212324,9.206394389
14.85782842,-0.3376631092,6.463082412,5.069234839,8.220863245
14.86783442,-0.4182899272,4.743744317,4.737589538,6.717352994
14.87784042,-0.7239994647,3.036273732,3.705450141,4.844945216
14.88784642,-0.7655927561,1.485185174,1.957005191,2.573281288
14.89785342,-0.1429481967,0.161969043,-0.2624224538,0.3399024891
14.90785942,0.6155523254,-1.015267841,-2.716218197,2.964374259
14.91786542,0.9295679788,-2.253971241,-5.218969168,5.760392535
14.92787242,0.8834511352,-3.44232953,-7.282438123,8.103334099
14.93787842,0.6974377567,-4.524288374,-8.7223103,9.850599052
14.94788442,0.6391759537,-5.896714672,-9.968239689,11.59937896
14.95789042,0.38310343,-7.216585026,-10.89306572,13.07228934
14.96789742,-0.1658207501,-8.036435412,-11.21751369,13.80015956
14.97790342,-0.6235735358,-8.727773938,-11.09199735,14.12781962
14.98790942,-0.7792901511,-9.245695742,-10.95022576,14.35261743
14.99791642,-0.6985394452,-9.548100872,-11.04565817,14.61713898
15.00792242,-0.5438927241,-9.65852437,-11.37788059,14.93449293
15.01792842,-0.3499655778,-9.453178927,-11.58651392,14.95768607
15.02793542,-0.1351539313,-9.085039399,-11.27055729,14.47693576
15.03794142,0.02742322214,-8.898727228,-10.47653347,13.74575759
15.04794742,0.126949703,-8.784700676,-9.299733955,12.79344105
15.05795342,0.02844736196,-8.520062127,-7.903238178,11.62124957
15.06796042,-0.1807799743,-8.214645097,-6.409606701,10.42094686
15.07796642,-0.1543884203,-8.058928481,-5.021125118,9.496413086
15.08797242,0.01309315838,-8.087749407,-3.811083015,8.940705546
15.09797942,-0.1175903573,-8.217916029,-2.481905648,8.58532626
15.10798542,-0.816814146,-8.477652857,-1.258375188,8.609372301
15.11799142,-1.5484003,-8.581840884,-0.7908236378,8.756194292
15.12799842,-1.85773248,-8.308841987,-0.8345818609,8.554797017
15.13800442,-1.720466315,-7.972227722,-1.204307739,8.244196523
15.14801042,-1.433979791,-7.556298316,-1.798294802,7.898595221
15.15801642,-0.9236507428,-7.032419953,-2.309102883,7.459223633
15.16802342,-0.1885788444,-6.350567365,-2.523686342,6.836246089
15.17802942,0.5380756582,-5.208845884,-2.252911141,5.700632374
15.18803542,1.038940367,-3.863460034,-2.115385798,4.525547215
15.19804242,1.14365786,-2.515606075,-2.334899629,3.617731817
15.20804842,0.7476086942,-0.4909123456,-2.521271442,2.675205296
15.21805442,-0.07313986044,2.677890868,-1.8353106,3.247277927
15.22806142,-1.073758636,6.362445983,0.4040958112,6.465057612
15.23806742,-2.207264706,9.803413696,4.357198924,10.95281334
15.24807342,-2.855437185,13.15591245,10.48904651,17.06609653
15.25807942,-0.4933689437,16.07972727,17.59605998,23.84161003
15.26808642,3.666335484,17.45037894,23.06757916,29.15597622
15.27809242,6.753777907,18.19121765,25.19238482,31.79921648
15.28809842,5.840362716,18.17334271,23.10573575,29.97090667
15.29810542,1.314066408,16.99835759,17.53966709,24.46039356
15.30811142,-3.804099101,15.66163615,11.95119892,20.0646249
15.31811742,-7.616521128,14.14641441,7.120829269,17.57380563
15.32812442,-9.686677544,13.17639876,3.762140651,16.78102823
15.33813042,-9.604889615,12.17729437,1.424022714,15.57460251
15.34813642,-8.094278408,11.4352675,-0.02607273459,14.01011655
15.35814242,-5.700701385,10.59613826,-0.7594328606,12.05623825
15.36814942,-2.701401645,9.29162913,-0.5040130323,9.689477378
15.37815542,0.5942126926,7.902958097,0.6363846391,7.950774856
15.38816142,3.411170594,6.528823242,1.677156281,7.554764784
15.39816842,5.143739476,4.891864815,2.140542274,7.414197083
15.40817442,5.593907254,2.903731386,2.552010255,6.799721367
15.41818042,4.89935042,0.5944022155,2.904369317,5.726456991
15.42818742,3.7790584,-1.711670641,2.785708262,4.997126103
15.43819342,2.610460777,-4.064149339,1.975648454,5.218716521
15.44819942,1.437447921,-5.897928554,0.501787582,6.091273145
15.45820542,0.2744062492,-7.271993242,-1.343888962,7.400217702
15.46821242,-0.5696486127,-8.210733894,-3.053922383,8.778786507
15.47821842,-1.037548656,-8.844782571,-4.385504125,9.926697959
15.48822442,-1.054257514,-9.445554743,-5.348706604,10.90589866
15.49823142,-0.7938888945,-9.893715756,-6.084569923,11.64207293
15.50823742,-0.4452154782,-10.13536481,-6.685781221,12.15004145
15.51824342,-0.03989299424,-10.38075491,-7.407843357,12.75295288
15.52825042,0.1647774607,-10.49010602,-8.12394835,13.26906224
15.53825642,0.1526986481,-10.38456144,-8.588732997,13.47697176
15.54826242,0.1454634496,-10.28598674,-8.789756763,13.53079846
15.55826854,0.1363260788,-10.15131601,-8.772492859,13.41731838
15.56827554,-0.07163270406,-10.00343057,-8.631735175,13.21289547
15.57828154,-0.200942051,-9.911372008,-8.299857155,12.92916477
15.58828754,-0.2246921253,-9.80917028,-7.7175616,12.48323136
15.59829454,-0.2928795037,-9.678553423,-7.080585222,11.99561844
15.60830054,-0.1510346767,-9.54277055,-6.499712879,11.54701471
15.61830654,0.09183205672,-9.318975388,-5.94585935,11.05463608
15.62831354,0.1664200898,-9.041800409,-5.424216378,10.54532947
15.63831954,0.1443502128,-8.806956933,-4.917911237,10.08807109
15.64832554,0.1532058209,-8.575231192,-4.50523756,9.687890766
15.65833154,0.1513407053,-8.364677634,-4.272511361,9.393885738
15.66833854,0.1684196182,-8.248131516,-4.17649891,9.246793056
15.67834454,0.1936274765,-8.040827841,-4.239312624,9.091984134
15.68835054,0.1885508508,-7.643223023,-4.240402545,8.742735462
15.69835754,0.2466621611,-7.281340601,-4.033637398,8.327604327
15.70836354,0.3245209803,-6.962962047,-3.653394134,7.869907435
15.71836954,0.3592000855,-6.485676053,-3.071540628,7.185219579
15.72837554,0.2968185537,-5.946105518,-2.530252181,6.468883071
15.73838254,0.1874924317,-5.467000455,-2.130318418,5.870392146
15.74838854,0.1749702539,-5.023762797,-1.525485939,5.253181377
15.75839454,0.2248930503,-4.511122198,-0.6422195756,4.562153697
15.76840154,0.2226559786,-3.672141477,0.4255773121,3.703419333
15.77840754,0.4025539736,-2.570382791,1.413284887,2.960792388
15.78841354,0.5065670961,-1.254289153,2.332344981,2.696235267
15.79842054,0.1957233379,0.4052442044,2.786473078,2.822580858
15.80842654,-1.923874575,2.492086819,2.009115577,3.734747046
15.81843254,-5.50108329,4.800063529,0.9086327541,7.357182934
15.82843854,-8.615394546,6.99044513,0.9057021296,11.13156066
15.83844554,-9.240232104,8.756884886,3.321086344,13.15653969
15.84845154,-7.100978556,10.39492739,7.719081291,14.76694375
15.85845754,-2.217235232,12.44029044,13.54215145,18.52206317
15.86846454,3.921980723,14.9342893,19.51831107,24.88733406
15.87847054,8.629095742,16.81778271,23.56641916,30.21051507
15.88847654,9.834715011,17.65369013,24.53983789,31.7895901
15.89848354,7.173635473,17.64627353,22.45286606,29.44457861
15.90848954,3.483222032,16.82881173,18.59364408,25.31926816
15.91849554,1.20867824,15.74360476,14.4668582,21.41522776
15.92850154,-0.01209032435,14.65039528,10.4698653,18.00700718
15.93850854,-0.9872830671,13.68961706,6.634299411,15.24448332
15.94851454,-2.470023521,12.82407361,3.233514349,13.45412558
15.95852054,-4.225823098,11.8094741,0.6370658398,12.55894551
15.96852754,-5.332102851,10.39555304,-0.6429574943,11.70095031
15.97853354,-5.410144469,8.64908211,-0.5853787923,10.21855924
15.98853954,-4.833242677,6.648168422,0.3492997992,8.226809132
15.99854654,-3.40745732,4.297367874,1.71478019,5.746181962
16.00855254,-0.876691827,2.087585796,2.912834331,3.689336913
16.01855854,2.126059598,0.4501636845,3.937895089,4.497754383
16.02856554,4.790213894,-0.7135222775,4.732385516,6.771317144
16.03857154,6.645937124,-1.79716395,4.712304423,8.342906658
16.04857754,7.173593373,-2.836646281,3.564477865,8.497794211
16.05858354,6.502179819,-3.725062287,1.474934421,7.637398968
16.06859054,5.407676944,-4.582985063,-0.9837098336,7.156424181
16.07859654,4.270826193,-5.543793107,-3.465269911,7.809077663
16.08860254,3.295148095,-6.53844542,-5.681247114,9.267461262
16.09860954,2.752286454,-7.365192012,-7.518870288,10.87908749
16.10861554,2.734443676,-7.953324843,-8.933917526,12.26977753
16.11862154,2.864198946,-8.278705437,-10.05181745,13.33340292
16.12862754,2.862351226,-8.494948336,-10.82268396,14.05303134
16.13863454,2.441800765,-8.460293058,-11.39305645,14.39932932
16.14864054,2.244060795,-8.442476592,-12.03004745,14.86718741
16.15864654,2.384926798,-8.935153043,-12.82310063,15.81002042
16.16865354,1.49146333,-8.948105795,-13.04421426,15.88850483
16.17865954,0.9373857062,-8.414823355,-12.65748877,15.22826208
16.18866554,0.7292585966,-7.946505235,-11.90438611,14.33154465
16.19867254,0.3907511495,-7.83391359,-10.66379289,13.2378007
16.20867854,0.2000027689,-7.9634224,-9.333087058,12.27039573
16.21868454,0.2968522482,-8.145552642,-7.979891667,11.406876
16.22869054,0.3567957835,-8.133141927,-6.797288793,10.60558512
16.23869754,0.624450472,-7.974787048,-5.760591491,9.857564668
16.24870354,1.160611131,-7.765960758,-4.822270669,9.214741401
16.25870954,1.485632194,-7.442894492,-4.233563642,8.690618076
16.26871654,1.435027174,-7.1672164,-4.360696728,8.511402344
16.27872254,1.052533681,-6.923747696,-4.959916465,8.581776077
16.28872854,0.5655245715,-6.502993752,-5.390553957,8.465625656
16.29873454,0.1117554939,-6.158650053,-5.326626348,8.14336589
16.30874154,-0.083188264,-5.821943402,-4.969797674,7.655118169
16.31874754,0.03013910763,-5.168132306,-4.467031268,6.831168879
16.32875354,0.4916501181,-4.350759385,-4.24176787,6.096180914
16.33876054,0.760531187,-3.260202211,-4.108881124,5.30002172
16.34876654,0.4568801618,-2.002833914,-3.765281775,4.289222542
16.35877254,-0.4245777306,-0.590196898,-3.223431995,3.304408034
16.36877954,-1.797754811,1.375603091,-2.50527346,3.376477652
16.37878554,-2.68382433,3.324327455,-0.7708115423,4.34145327
16.38879154,-2.478679154,4.864341971,2.065785037,5.837220312
16.39879754,-1.392835127,6.685797009,6.075131932,9.140410239
16.40880454,0.6323462597,8.544547927,11.34716634,14.21855636
16.41881054,3.168728077,9.575487476,16.65848467,19.47398032
16.42881654,5.060524242,9.872611985,20.62262675,23.41730358
16.43882354,4.993602859,9.868909528,22.15198471,24.75968238
16.44882954,2.564256663,9.678007293,21.26417623,23.50328548
16.45883554,-0.4028175368,9.179400011,19.47301269,21.53188031
16.46884254,-2.590394302,8.677187337,17.45896967,19.66772342
16.47884854,-3.430974237,8.196576616,15.23714934,17.63876902
16.48885454,-3.294973848,8.006944395,12.49794866,15.20416824
16.49886054,-3.218306326,8.319549408,9.112193284,12.75164556
16.50886754,-3.29690226,8.765272717,5.992679175,11.1180832
16.51887354,-3.363961345,9.134528478,3.646990848,10.39501749
16.52887954,-3.103794454,8.964141199,2.291003997,9.758999271
16.53888654,-2.258704416,7.837946999,2.060017344,8.413015527
16.54889254,-1.268949731,6.781770283,2.540261444,7.352249302
16.55889933,-0.1457555271,5.778462337,3.140789788,6.57848251
16.56890633,1.264065259,4.6234706,3.947243618,6.20927319
16.57891233,2.691409045,3.391144173,4.628322619,6.337579327
16.58891833,3.397369119,2.301662886,4.355095096,5.98386349
16.59892433,2.865278634,1.489201627,3.059571962,4.448429355
16.60893133,1.701344458,0.7166908836,1.196249691,2.199825472
16.61893733,0.6151637048,-0.1055054051,-0.8692459095,1.070115052
16.62894333,-0.09774593976,-0.6396047008,-3.012038777,3.080750888
16.63895033,-0.596634317,-1.312513388,-5.063323304,5.264589897
16.64895633,-0.9355391555,-1.874914377,-6.71188787,7.031356641
16.65896233,-0.9605788332,-2.651167338,-7.731402544,8.229579895
16.66896933,-0.6650227665,-3.552662396,-8.273694958,9.028714949
16.67897533,-0.4897528428,-4.109013855,-8.355336122,9.32392055
16.68898133,-0.3254656711,-4.501987093,-8.16056303,9.325695934
16.69898733,-0.1472138136,-4.760928115,-8.083262254,9.382283149
16.70899433,0.1201498389,-4.994949473,-8.318433759,9.70362285
16.71900033,0.4793997262,-5.221719114,-8.72429543,10.17887545
16.72900633,0.8411523771,-5.223503099,-9.275052273,10.67797343
16.73901333,0.7243389686,-5.090129864,-9.783771145,11.05243262
16.74901933,0.6276552578,-4.74899921,-10.04724961,11.13077577
16.75902533,0.5225160346,-4.547652093,-10.08319829,11.07361957
16.76903233,0.2182832481,-4.417073243,-9.814418156,10.76480317
16.77903833,0.1279070019,-4.240461017,-9.459050117,10.36684614
16.78904433,0.3904252769,-4.345523788,-8.593002634,9.637204115
16.79905033,0.7805791698,-4.681366805,-6.943190857,8.410255542
16.80905733,1.039010607,-4.794534987,-4.980933112,6.991194708
16.81906333,1.394417676,-5.028747548,-3.003645099,6.021178161
16.82906933,1.593215115,-5.468375135,-1.53767329,5.899652546
16.83907633,1.343271642,-5.776474868,-0.9982389951,6.014027078
16.84908233,0.8102934773,-5.943456729,-1.140211145,6.10584432
16.85908833,0.3045184596,-5.908120251,-1.520569015,6.108252329
16.86909533,-0.02832873657,-5.589408991,-1.851757064,5.888233997
16.87910133,0.06098587453,-5.011991767,-1.677346315,5.285572004
16.88910733,0.2862394787,-4.202044226,-1.174118564,4.372374997
16.89911333,0.09940120429,-3.088702206,-0.8761970794,3.212115072
16.90912033,-1.090864738,-1.300997881,-1.196221039,2.076903016
16.91912633,-3.397808245,1.06541824,-1.507887574,3.867032691
16.92913233,-5.86519701,3.543493962,-1.101603734,6.940491064
16.93913933,-7.585601052,6.279045392,0.6284938216,9.867256906
16.94914533,-7.611197239,9.0459034,4.161819475,12.53313341
16.95915133,-5.607424262,10.69955212,9.295332171,15.24227091
16.96915733,-2.084744926,11.29530738,15.02134031,18.90954243
16.97916433,1.291811467,11.53888601,19.54503051,22.73373891
16.98917033,2.017868713,11.60168511,21.12296363,24.18368219
16.99917633,0.06555138052,11.02836094,19.69453797,22.57219235
17.00918333,-2.932048867,10.14176634,16.88645358,19.91493534
17.01918933,-5.136576052,9.051630748,14.31877045,17.70151462
17.02919533,-6.257599559,7.813246021,11.97577827,15.60844742
17.03920233,-6.685956053,6.895514415,9.620105824,13.59398998
17.04920833,-6.79702216,6.29088308,7.326237277,11.80883029
17.05921433,-6.118573821,5.701543384,5.378664229,9.943569352
17.06922033,-4.664470106,4.872397095,4.087400792,7.886975343
17.07922733,-3.048195035,3.859763424,3.592457961,6.090568189
17.08923333,-1.602532214,2.70867295,3.424003186,4.65067914
17.09923933,-0.4450941485,1.589118848,2.993952169,3.418648433
17.10924633,0.4092265968,0.4838231814,2.058399419,2.153731517
17.11925233,1.118038211,-0.5456756133,0.6837564415,1.419610576
17.12925833,1.724908006,-1.523665116,-1.085671241,2.544709229
17.13926533,2.264094818,-2.521737465,-3.113314306,4.601957318
17.14927133,2.550744917,-3.208750806,-5.070453399,6.520113422
17.15927733,2.87912104,-3.798343686,-6.943941055,8.422296011
17.16928433,3.489481184,-4.76395054,-8.762120483,10.5662888
17.17929033,3.460840352,-5.527095214,-9.892865571,11.84883904
17.18929633,2.558452132,-6.021007181,-10.2418695,12.15294597
17.19930233,1.433230324,-6.294146996,-10.18920948,12.06194119
17.20930933,0.9443742983,-6.501367641,-10.1710796,12.10828164
17.21931533,1.122419311,-6.56133727,-10.37761495,12.32906582
17.22932133,1.515005097,-6.55416449,-10.7353862,12.66889219
17.23932833,1.838594397,-6.439401188,-11.32969135,13.16085951
17.24933433,2.3148716,-6.105310582,-11.87208375,13.54916309
17.25934033,2.82063485,-5.73857497,-12.13847939,13.71969043
17.26934633,3.055542646,-5.678186681,-11.98142317,13.6063458
17.27935333,2.939185393,-5.886169803,-11.30789293,13.08259333
17.28935933,2.634972597,-6.257608915,-9.949004688,12.04505891
17.29936533,2.468416121,-6.906893681,-8.47735114,11.20998398
17.30937233,2.368334593,-7.605235417,-7.152741618,10.70562129
17.31937833,2.476574741,-7.983213471,-5.831287252,10.19161571
17.32938433,2.353706321,-8.394833479,-4.828272836,9.966211977
17.33939133,1.787688683,-8.7642898,-4.329842141,9.937612364
17.34939733,1.366051664,-8.570002027,-4.640356189,9.840931737
17.35940333,1.283560315,-7.981424807,-5.740646054,9.914922398
17.36940933,1.259123631,-7.36921782,-6.953786012,10.21008832
17.37941633,0.4211565247,-6.613425436,-7.597382022,10.08141768
17.38942233,-0.4565948908,-5.982960518,-6.988100982,9.210746484
17.39942833,-1.01939656,-5.891741615,-4.751944453,7.637588931
17.40943533,-1.14434805,-6.018159587,-1.909132283,6.416585022
17.41944133,-1.35280582,-5.964312578,0.04626024663,6.115983005
17.42944733,-2.197304997,-5.338829488,-0.8429579973,5.834537491
17.43945433,-3.947561706,-3.273885865,-3.437196844,6.173807109
17.44946033,-6.163145392,-0.6888125288,-5.193411573,8.088902743
17.45946633,-7.325970644,1.509351717,-4.299488075,8.627490144
17.46947233,-6.795831667,3.48643917,0.1104170662,7.638768099
17.47947933,-4.49933275,5.286647181,8.380927046,10.88267301
17.48948533,-0.3577501953,6.589077045,19.39559322,20.48738533
17.49949133,3.984826596,7.199423448,28.02814642,29.21108578
17.50949833,5.930432641,8.231894383,31.03354042,32.64988128
17.51950433,4.757268927,10.29204446,27.84026836,30.06057766
17.52951033,1.925001334,12.31194055,21.73071855,25.05022233
17.53951733,0.07513701349,12.95947173,17.39005204,21.68795664
17.54952333,0.2831941026,12.71828461,16.06449761,20.49153596
17.55952929,1.607310559,12.05963436,15.43953551,19.65699583
17.56953529,2.131743238,11.57633158,13.6521598,18.0260159
17.57954229,1.267018103,11.16422918,10.60351862,15.44927038
17.58954829,-0.09064814173,10.6635169,7.471033047,13.02056621
17.59955429,-1.550523424,10.03313677,5.240060075,11.42480572
17.60956129,-2.533910784,9.038604906,4.054755787,10.22536684
17.61956729,-2.65855471,8.18040848,3.761495703,9.388069342
17.62957329,-2.172145013,7.591516095,4.389838666,9.034379564
17.63957929,-1.405505167,6.923699164,5.439516787,8.916355632
17.64958629,-0.5192889198,6.143005242,5.96490607,8.578244507
17.65959229,0.2537827724,5.294917483,5.281298148,7.482824799
17.66959829,0.5658424043,4.398272105,3.769180114,5.819939336
17.67960529,0.6697125989,3.217667225,2.004418509,3.849622176
17.68961129,0.6932356551,1.926837067,0.3580215061,2.078811236
17.69961729,0.7119960811,0.4927314144,-1.197840718,1.478020653
17.70962429,0.625492592,-1.013140624,-2.696134765,2.947344157
17.71963029,0.4743772969,-2.552969783,-4.006077132,4.774027914
17.72963629,0.5010931521,-4.138412486,-5.068050193,6.562216471
17.73964329,0.8082225396,-5.546085216,-6.093774025,8.279273324
17.74964929,1.049969312,-6.718032709,-7.105614814,9.834844224
17.75965529,1.11460458,-7.591140119,-7.887779894,11.00385493
17.76966129,1.108151373,-8.354191822,-8.695370423,12.10908697
17.77966829,0.9994393554,-9.030442193,-9.93194953,13.460735
17.78967429,0.5098544738,-9.573149759,-11.48957761,14.96380772
17.79968029,0.1496131454,-9.876779881,-12.90113523,16.24846009
17.80968729,0.2767587667,-10.06996253,-13.9462268,17.20401066
17.81969329,0.2085755545,-10.10733092,-14.28576759,17.50099419
17.82969929,-0.2559824766,-10.06457608,-13.66160539,16.9705828
17.83970529,-0.7306717955,-10.23389507,-12.23636061,15.96856319
17.84971229,-0.932785994,-10.51827791,-10.28360693,14.73963471
17.85971829,-1.008045799,-10.74554866,-8.292501943,13.61060472
17.86972429,-1.191750916,-10.29914298,-6.387079718,12.17733155
17.87973129,-1.263254835,-10.00130803,-4.316076626,10.96587856
17.88973729,-1.523530338,-9.65361154,-2.700300322,10.13927918
17.89974329,-1.523142667,-9.35751731,-1.817210544,9.653255821
17.90975029,-1.014559013,-8.68188499,-1.533534631,8.874468177
17.91975629,-0.7790657642,-7.817556004,-1.96768747,8.098945568
17.92976229,-1.075580701,-7.27908416,-2.867874506,7.897255488
17.93976829,-1.607551026,-6.762831151,-4.133563975,8.087425834
17.94977529,-1.815063739,-6.007964966,-5.276466594,8.199463344
17.95978129,-1.390398446,-5.052148106,-5.616585095,7.681369438
17.96978729,-0.5035336337,-3.95010466,-4.969768438,6.368317775
17.97979429,0.3455518071,-2.747824736,-4.00442354,4.868814508
17.98980029,0.8396177754,-1.214149772,-3.280469829,3.597304544
17.99980629,1.07318305,0.5574676931,-3.001037241,3.235539616
18.00981329,0.7888508604,2.418055807,-2.709656451,3.716385024
18.01981929,0.05380460749,4.392387468,-1.869165394,4.77386027
18.02982529,-0.7716501061,6.544560438,-0.294867484,6.596488615
18.03983129,-0.967609233,8.887571325,2.696685573,9.337949709
18.04983829,0.4770779796,10.68095447,7.503715475,13.06201124
18.05984429,3.653442374,11.98112497,13.88597475,18.70067623
18.06985029,7.078467945,12.67738685,20.01669148,24.72829925
18.07985729,8.318320323,12.53352546,23.20365088,27.65308532
18.08986329,6.187556933,11.67864499,22.18355968,25.82221775
18.09986929,1.948962054,10.9607718,18.1888776,21.32538956
18.10987629,-1.79164184,10.41725907,14.4439991,17.89855796
18.11988229,-4.160113842,9.753986013,11.96744482,15.98957554
18.12988829,-5.381057494,9.509266005,11.13144969,15.59779125
18.13989429,-5.130600783,9.169474363,11.16458001,15.33134604
18.14990129,-4.332030461,8.971897531,11.32375642,15.08273492
18.15990729,-3.730911841,8.711428632,11.02425151,14.53763438
18.16991329,-3.165439602,8.283032377,10.44695006,13.70282449
18.17992029,-2.549118807,7.638479762,9.802758808,12.68615229
18.18992629,-1.797526624,6.650149459,8.834153502,11.20258264
18.19993229,-1.074928298,5.459630624,7.557342628,9.384906233
18.20993929,-0.5380014716,3.988833109,6.030136439,7.250019353
18.21994529,-0.3249962859,2.317424056,4.260557313,4.860907884
18.22995129,-0.1499996281,0.6319132733,2.16328385,2.258674675
18.23995729,0.01836117078,-0.9528412127,-0.1771916842,0.9693505054
18.24996429,-0.01717970431,-2.481234387,-2.772653768,3.720810146
18.25997029,-0.1690441374,-3.716268659,-5.41364929,6.56862446
18.26997629,-0.4824027831,-4.842168744,-8.183932012,9.521347266
18.27998329,-0.7462753098,-5.995769429,-10.45664943,12.07674191
18.28998929,-1.01986368,-7.306267281,-12.25090614,14.30057218
18.29999529,-1.008779186,-8.616410792,-13.48044111,16.03067256
18.31000229,-0.884635781,-9.203273608,-14.04401563,16.8141964
18.32000829,-0.8194529213,-9.310955932,-14.48062255,17.23524972
18.33001429,-0.6505259109,-8.858615329,-14.99359176,17.42716395
18.34002029,-0.6275999285,-8.070290206,-15.27638416,17.28847531
18.35002729,-0.5517395779,-7.411608379,-14.94900089,16.69457945
18.36003329,0.1153418836,-6.732248459,-13.94971174,15.48970402
18.37003929,1.011669245,-5.612507831,-12.37189907,13.62305418
18.38004629,1.494165036,-4.557125167,-10.25325169,11.31941205
18.39005229,1.754258544,-4.104124414,-7.767181656,8.958257148
18.40005829,1.902165325,-3.92308877,-5.251526465,6.825495486
18.41006429,1.881278632,-3.798805032,-3.211049931,5.317985579
18.42007129,1.388161156,-4.040635931,-1.862221241,4.660643525
18.43007729,0.6578032093,-4.203919428,-1.328644102,4.457683117
18.44008329,-0.115583666,-4.195785951,-1.29626456,4.392980895
18.45009029,-0.6031533777,-4.241467908,-1.634489733,4.585346301
18.46009629,-0.843843412,-4.395778268,-2.176665788,4.977229374
18.47010229,-1.197981928,-4.399512885,-2.748570256,5.324050411
18.48010929,-1.343437119,-4.23120429,-3.025210215,5.372132713
18.49011529,-0.9839943007,-4.128751132,-2.938811172,5.162503443
18.50012129,-0.3237145031,-3.984598555,-2.719508425,4.835032864
18.51012729,0.2955704837,-3.660278646,-2.562515363,4.477888638
18.52013429,0.789616334,-3.382205535,-2.412530188,4.228842648
18.53014029,0.8898349059,-3.131746484,-2.380414356,4.033114765
18.54014629,0.5646940842,-2.640233045,-2.360332679,3.586206951
18.55015329,0.08190448953,-1.929282373,-2.229310024,2.94934942
18.56015883,-0.6576956937,-1.229542567,-1.948747169,2.396237484
18.57016483,-1.912788985,-0.2867866319,-1.350271783,2.358864592
18.58017183,-3.136781521,1.54836317,0.3122342992,3.512024641
18.59017783,-3.279391895,4.34163422,2.857179948,6.145541161
18.60018383,-1.547297515,7.170621818,5.943073736,9.440978355
18.61018983,1.230264552,9.606400536,9.221877109,13.37308863
18.62019683,3.046316324,11.48973666,12.16434864,17.00780613
18.63020283,3.743499435,12.46866113,15.14856169,19.97398857
18.64020883,4.087162226,12.41690625,18.54029292,22.68538996
18.65021583,4.165870426,11.76346002,21.28501337,24.67357417
18.66022183,3.675412994,11.13007208,21.94812738,24.88187013
18.67022783,2.733770661,10.52628743,19.99273193,22.7592961
18.68023483,1.405921196,9.686126152,16.29078837,19.00493199
18.69024083,-0.1882124432,8.983472679,12.32767307,15.2548264
18.70024683,-1.232273802,8.277151247,9.073150256,12.34308661
18.71025283,-1.254976932,7.104481038,6.95315919,10.01973256
18.72025983,-0.9436344793,5.748349761,5.648613219,8.114234548
18.73026583,-0.6977507289,4.223922168,4.611430598,6.292349857
18.74027183,-0.5932304335,2.574702129,3.79801098,4.626651144
18.75027883,-0.7200471854,1.094796991,3.215716594,3.472446056
18.76028483,-0.9028916654,-0.03702223063,2.741562953,2.886650556
18.77029083,-1.104041293,-0.9177204967,2.00622296,2.466991822
18.78029783,-1.176447802,-1.565212507,0.8421756399,2.131473535
18.79030383,-0.8267480537,-1.765376147,-0.5735317487,2.031995067
18.80030983,-0.9709295744,-2.896259229,-2.733338259,4.099043767
18.81031583,-1.341315018,-2.699629061,-4.136499277,5.118373698
18.82032283,-1.716021262,-2.950035487,-5.506770877,6.4785773
18.83032883,-1.774113057,-3.583832148,-6.936111633,8.006308425
18.84033483,-2.1529277,-3.806841445,-8.171413708,9.268178972
18.85034183,-2.307257794,-3.992364827,-9.233155804,10.32054173
18.86034783,-2.129386664,-4.216229571,-10.28857238,11.32102473
18.87035383,-2.270013516,-4.293671265,-11.24964764,12.25329125
18.88036083,-2.511658035,-4.242408725,-12.12247673,13.08666878
18.89036683,-2.611904162,-4.411285669,-12.52943709,13.53766148
18.90037283,-2.457460485,-4.722028928,-12.15865345,13.27288676
18.91037883,-2.339128336,-4.679520839,-11.51309161,12.64597624
18.92038583,-1.618249238,-4.874684526,-10.69653613,11.86579812
18.93039183,-0.9703170785,-5.094096615,-9.844269361,11.12658864
18.94039783,-0.3813064344,-5.172823527,-8.969131798,10.36092771
18.95040483,0.1159479475,-5.310021425,-8.087929502,9.675968948
18.96041083,0.3723637028,-5.480411044,-7.217032338,9.069681125
18.97041683,0.3424857464,-5.823441458,-6.442914196,8.691427399
18.98042383,0.01761327535,-6.196790271,-5.909761564,8.563048618
18.99042983,-0.451135711,-6.535253425,-5.597554747,8.616593289
19.00043583,-0.917775899,-6.755218077,-5.236397964,8.596228679
19.01044183,-1.383861259,-6.849541851,-4.524028172,8.324549625
19.02044883,-1.637963271,-6.702114249,-3.73762503,7.846725428
19.03045483,-1.767347828,-6.591548663,-3.180093602,7.528945972
19.04046083,-1.632958932,-6.325421414,-2.926934307,7.158523268
19.05046783,-1.236826151,-5.509321432,-2.474373264,6.164810185
19.06047383,-0.8063073573,-4.77374755,-2.108558589,5.280607593
19.07047983,-0.4115196921,-3.965143699,-1.826620468,4.38500346
19.08048683,-0.1338078292,-2.807519546,-1.461463605,3.167956187
19.09049283,-0.06755028773,-1.426289679,-1.162721756,1.841409018
19.10049883,-0.3734496404,0.3292514509,-0.7526220238,0.9023918564
19.11050483,-1.336995534,2.363370307,0.01922564507,2.715408973
19.12051183,-2.585923521,4.477857388,1.640411793,5.4248648
19.13051783,-2.839273727,6.770852947,4.289875252,8.503467211
19.14052383,-1.614572216,8.825770934,8.323426697,12.23848471
19.15053083,1.191392116,10.27533312,13.57466665,17.06673549
19.16053683,4.562096178,10.95320433,18.75324734,22.19165818
19.17054283,6.47519375,11.24688542,22.35844288,25.85189613
19.18054883,6.287080636,11.09471514,23.82586012,27.02390973
19.19055583,4.53101004,10.83025025,23.57142204,26.33317887
19.20056183,2.058301186,10.24192213,22.48669805,24.7948616
19.21056783,0.4565581264,9.206864383,21.12382434,23.04757584
19.22057483,-0.3738091345,8.632226341,19.58480795,21.40606847
19.23058083,-0.479343666,8.487287314,17.67185509,19.61015754
19.24058683,0.1448378158,8.358042798,15.16816857,17.31909914
19.25059383,1.235141422,8.381690108,12.52805715,15.12383943
19.26059983,2.226206322,8.237009527,9.751045448,12.95712962
19.27060583,2.815006613,7.930740557,6.515740682,10.64310973
19.28061183,2.677726561,6.845747008,3.414435972,8.105112254
19.29061883,1.615673101,4.81014062,0.3423766959,5.085771737
19.30062483,-0.5479006981,2.872195598,-2.993968542,4.184919397
19.31063083,-2.923949304,1.028511785,-6.128210617,6.867479988
19.32063783,-4.338922574,-0.7378747612,-8.176808934,9.286060123
19.33064383,-4.595200189,-2.119505162,-8.989350885,10.315842
