"Time (s)","Acceleration x (m/s^2)","Acceleration y (m/s^2)","Acceleration z (m/s^2)","Absolute acceleration (m/s^2)"
3.570416593E-4,-6.059399414E-1,3.710034943E0,7.822283478E0,8.678688916E0
1.039804166E-2,-7.026388550E-1,3.809278564E0,7.942333832E0,8.836570106E0
2.044004166E-2,-7.259902954E-1,3.979025574E0,8.047565002E0,9.006831235E0
3.048104166E-2,-7.322772217E-1,4.189637604E0,8.176147614E0,9.216218475E0
4.052304167E-2,-8.006849670E-1,4.408332825E0,8.216413879E0,9.358629801E0
5.056404167E-2,-8.141569519E-1,4.566404114E0,8.246501312E0,9.461484131E0
6.060604166E-2,-8.101153564E-1,4.669090576E0,8.295000458E0,9.553205027E0
7.064704166E-2,-7.673043823E-1,4.731660461E0,8.369395752E0,9.644902902E0
8.068904166E-2,-7.212002563E-1,4.771178284E0,8.470285950E0,9.748334016E0
9.073104167E-2,-6.956034851E-1,4.770729218E0,8.583750000E0,9.845023389E0
1.007720417E-1,-6.444099426E-1,4.736450500E0,8.769663391E0,9.987803738E0
1.108140417E-1,-6.800358582E-1,4.730313263E0,8.896449738E0,1.009876875E1
1.208550417E-1,-7.664062500E-1,4.801714783E0,8.886420593E0,1.012977366E1
1.308970417E-1,-8.177494812E-1,4.847070465E0,8.915909271E0,1.018117107E1
1.409380417E-1,-8.304730225E-1,4.827012177E0,8.891360321E0,1.015115857E1
1.509800417E-1,-8.068222046E-1,4.820276184E0,8.780890045E0,1.004938080E1
1.610220417E-1,-8.273295593E-1,4.823419647E0,8.756490784E0,1.003125028E1
1.710630417E-1,-8.590635681E-1,4.855153656E0,8.813372498E0,1.009881389E1
1.811050417E-1,-8.942404175E-1,4.849315796E0,8.939410400E0,1.020924032E1
1.911460417E-1,-1.005608826E0,4.870870972E0,9.070238342E0,1.034436352E1
2.011880417E-1,-1.273102570E0,5.191504211E0,9.072932739E0,1.053046127E1
2.112290417E-1,-1.665287018E0,5.825735321E0,9.087751923E0,1.092243599E1
2.212710417E-1,-1.805994415E0,6.249803467E0,9.271869049E0,1.132648290E1
2.313130417E-1,-1.532064056E0,6.142925720E0,9.521849213E0,1.143452531E1
2.413540417E-1,-8.487350464E-1,5.609435120E0,9.780211945E0,1.130657593E1
2.513960417E-1,-9.445358276E-2,4.898114319E0,1.003573059E1,1.116764675E1
2.614370417E-1,4.578977966E-1,4.102369080E0,1.023601410E1,1.103698723E1
2.714790417E-1,5.589376831E-1,3.290008392E0,1.055634796E1,1.107127133E1
2.815200417E-1,1.342707825E-1,2.749632111E0,1.095931000E1,1.129977792E1
2.915620417E-1,-5.029541016E-1,2.629581757E0,1.085258194E1,1.117793352E1
3.016040417E-1,-1.222657471E0,2.845133514E0,1.018407211E1,1.064448218E1
3.116450417E-1,-1.793420563E0,3.233725433E0,9.230405273E0,9.943526487E0
3.216870417E-1,-2.269730072E0,3.676804047E0,8.649912415E0,9.669102718E0
3.317280417E-1,-2.505340118E0,4.093387756E0,8.172255707E0,9.477252543E0
3.417700417E-1,-2.368225250E0,4.373605042E0,7.761210480E0,9.218096333E0
3.518110417E-1,-2.095941467E0,4.582869873E0,7.529043274E0,9.059920503E0
3.618530417E-1,-1.718426514E0,4.659211121E0,7.533234558E0,9.022796731E0
3.718950417E-1,-1.156644745E0,4.339326324E0,8.055947571E0,9.223116137E0
3.819360417E-1,-7.920030212E-1,3.759731598E0,8.782835999E0,9.586503985E0
3.919780417E-1,-8.551716614E-1,3.380270691E0,9.493857422E0,1.011389526E1
4.020190417E-1,-1.176403656E0,3.342698822E0,9.896520081E0,1.051183479E1
4.120610417E-1,-1.489851837E0,3.442241821E0,9.966275024E0,1.064872411E1
4.221020417E-1,-1.654060364E0,3.545077972E0,9.790390778E0,1.054301878E1
4.321440417E-1,-1.672771454E0,3.682192841E0,9.380393372E0,1.021511078E1
4.421860417E-1,-1.592987366E0,3.788621521E0,8.847800903E0,9.755759458E0
4.522270417E-1,-1.632804565E0,3.965852966E0,8.333919525E0,9.372740002E0
4.622690417E-1,-1.720671844E0,4.166585541E0,7.907156982E0,9.101883223E0
4.723100417E-1,-1.810335388E0,4.262236633E0,7.656278687E0,8.947769480E0
4.823520417E-1,-1.882485352E0,4.213737488E0,7.505841522E0,8.811185600E0
4.923930417E-1,-1.946252747E0,4.086053009E0,7.503596191E0,8.762858252E0
5.024350417E-1,-2.055525513E0,3.942202148E0,7.618856506E0,8.821174376E0
5.124770417E-1,-2.130369873E0,3.830384674E0,7.675738220E0,8.838963727E0
5.225180417E-1,-2.164498901E0,3.761976929E0,7.774532776E0,8.903981457E0
5.325600417E-1,-2.166145477E0,3.756288757E0,7.878865814E0,8.993242907E0
5.426010417E-1,-2.120789795E0,3.773502960E0,7.889643402E0,8.999085896E0
5.526430417E-1,-1.975292358E0,3.766916656E0,7.925419006E0,8.994648822E0
5.626840417E-1,-1.748064880E0,3.766617279E0,7.970026245E0,8.986904634E0
5.727260417E-1,-1.532662811E0,3.788471832E0,7.985444183E0,8.970445525E0
5.827680417E-1,-1.385369110E0,3.849544830E0,8.025560760E0,9.008211171E0
5.928090417E-1,-1.323248291E0,3.883224792E0,8.072113953E0,9.054802289E0
6.028510417E-1,-1.395098877E0,3.865711212E0,8.193661194E0,9.166575577E0
6.128920417E-1,-1.434017944E0,3.803291016E0,8.369545441E0,9.304338821E0
6.229340417E-1,-1.405726776E0,3.689078522E0,8.579858093E0,9.444539852E0
6.329750417E-1,-1.455872498E0,3.593128052E0,8.725355530E0,9.547877411E0
6.430215417E-1,-1.496737518E0,3.532055054E0,8.757987671E0,9.561275236E0
6.530635417E-1,-1.397194519E0,3.521127777E0,8.824449463E0,9.603197471E0
6.631045417E-1,-1.299896851E0,3.593427429E0,8.897796936E0,9.683658546E0
6.731465417E-1,-1.297950897E0,3.796255646E0,8.858279114E0,9.724471313E0
6.831875417E-1,-1.331930237E0,4.078119507E0,8.836723938E0,9.823074204E0
6.932295417E-1,-1.305285645E0,4.362228699E0,8.778195648E0,9.888858815E0
7.032715417E-1,-1.152453461E0,4.495751038E0,8.660390625E0,9.825593730E0
7.133125417E-1,-9.903405762E-1,4.485422516E0,8.623267822E0,9.770390859E0
7.233545417E-1,-8.631051636E-1,4.478237457E0,8.631500702E0,9.762293051E0
7.333955417E-1,-8.310717773E-1,4.520599365E0,8.717571716E0,9.855077653E0
7.434375417E-1,-9.364526367E-1,4.497547302E0,8.853788452E0,9.974690232E0
7.534785417E-1,-1.049617310E0,4.411176910E0,8.989256744E0,1.006811378E1
7.635205417E-1,-1.095122681E0,4.297563171E0,9.093140717E0,1.011699318E1
7.735625417E-1,-1.170266418E0,4.217479706E0,9.214538269E0,1.020119474E1
7.836035417E-1,-1.199156342E0,4.190386047E0,9.297914886E0,1.026881358E1
7.936455417E-1,-1.136885834E0,4.165687408E0,9.340426483E0,1.029023945E1
8.036865417E-1,-1.086590424E0,4.163591766E0,9.412127380E0,1.034912156E1
8.137285417E-1,-1.103056183E0,4.209246826E0,9.426497498E0,1.038235748E1
8.237695417E-1,-1.154249725E0,4.254003754E0,9.345515900E0,1.033283639E1
8.338115417E-1,-1.200802917E0,4.242926788E0,9.255253601E0,1.025202783E1
8.438535417E-1,-1.219364319E0,4.161645813E0,9.172775116E0,1.014622829E1
8.538945417E-1,-1.276096344E0,4.109105072E0,9.050030365E0,1.002078919E1
8.639365417E-1,-1.448088684E0,4.182901611E0,8.853938141E0,9.898780093E0
8.739775417E-1,-1.722767487E0,4.432732086E0,8.707841949E0,9.921872453E0
8.840195417E-1,-1.976040802E0,4.709955597E0,8.617280273E0,1.001728198E1
8.940615417E-1,-2.177671509E0,4.899611206E0,8.551566925E0,1.009345035E1
9.041025417E-1,-2.239642639E0,5.060227203E0,8.409212952E0,1.006661616E1
9.141445417E-1,-2.060764618E0,5.078339539E0,8.398285675E0,1.002833414E1
9.241855417E-1,-1.685345306E0,4.845573578E0,8.526568909E0,9.950997410E0
9.342275417E-1,-1.301393738E0,4.499942322E0,8.624615021E0,9.814636561E0
9.442685417E-1,-1.059796143E0,4.237537994E0,8.857231293E0,9.875750214E0
9.543105417E-1,-1.000220032E0,4.098477173E0,9.097332001E0,1.002793123E1
9.643525417E-1,-1.140628052E0,4.009861450E0,9.257049866E0,1.015248706E1
9.743935417E-1,-1.342109070E0,3.992796936E0,9.388476563E0,1.029014948E1
9.844355417E-1,-1.495839386E0,3.930077362E0,9.413624268E0,1.031015836E1
9.944765417E-1,-1.503922577E0,3.794309692E0,9.383836212E0,1.023303236E1
1.004518542E0,-1.331331482E0,3.613785095E0,9.368118896E0,1.012884682E1
1.014559542E0,-1.026265869E0,3.406017151E0,9.360784149E0,1.001391304E1
1.024601542E0,-8.481362915E-1,3.165617065E0,9.373807068E0,9.930192622E0
1.034643542E0,-8.779243469E-1,3.026256866E0,9.313781891E0,9.832370767E0
1.044684542E0,-1.080752563E0,3.080144806E0,9.077872467E0,9.646921097E0
1.054726542E0,-1.293609924E0,3.181933136E0,8.854087830E0,9.496999337E0
1.064767542E0,-1.430575104E0,3.203039246E0,8.656498718E0,9.340287768E0
1.074809542E0,-1.567689972E0,3.197351074E0,8.446485443E0,9.166450899E0
1.084851542E0,-1.687141571E0,3.200793915E0,8.278385010E0,9.034555149E0
1.094892542E0,-1.720222778E0,3.217708740E0,8.153694305E0,8.932835315E0
1.104934542E0,-1.669777679E0,3.213966522E0,8.067024536E0,8.842772369E0
1.114975542E0,-1.558109894E0,3.147654419E0,8.115224304E0,8.842641025E0
1.125017542E0,-1.510508881E0,3.058439941E0,8.191415863E0,8.873273680E0
1.135059542E0,-1.472787323E0,3.002456360E0,8.255931702E0,8.907539220E0
1.145100542E0,-1.439706116E0,2.959495697E0,8.393795013E0,9.015939397E0
1.155142542E0,-1.495240631E0,2.949017487E0,8.535550232E0,9.153582165E0
1.165183542E0,-1.513203278E0,2.926414490E0,8.660240936E0,9.265714166E0
1.175225542E0,-1.487905884E0,2.864293671E0,8.809031525E0,9.381741765E0
1.185266542E0,-1.560804291E0,2.812201996E0,8.987610168E0,9.545770091E0
1.195308542E0,-1.665436707E0,2.773282928E0,9.095984802E0,9.654103643E0
1.205350542E0,-1.775008850E0,2.745440826E0,9.148974609E0,9.715546210E0
1.215391542E0,-1.832938385E0,2.722089386E0,9.153764648E0,9.724239867E0
1.225433542E0,-1.884880371E0,2.723436584E0,9.120533752E0,9.703299273E0
1.235474542E0,-2.018552399E0,2.734663239E0,9.007219391E0,9.627197825E0
1.245516542E0,-2.151475983E0,2.790796509E0,8.842112732E0,9.518421698E0
1.255558542E0,-2.247875519E0,2.842139740E0,8.656049652E0,9.383916998E0
1.265599542E0,-2.355501709E0,2.895578613E0,8.497529297E0,9.281205092E0
1.275641542E0,-2.495760040E0,2.959944763E0,8.411009216E0,9.259328659E0
1.285682542E0,-2.631677399E0,3.002007294E0,8.322842560E0,9.230789890E0
1.295724542E0,-2.720143433E0,3.002905426E0,8.329728241E0,9.262882589E0
1.305766542E0,-2.766546936E0,2.965483246E0,8.387807465E0,9.316822790E0
1.315807542E0,-2.784958649E0,2.925516357E0,8.410859528E0,9.330444717E0
1.325849542E0,-2.815644836E0,2.886148224E0,8.462352448E0,9.373852802E0
1.335890542E0,-2.873574371E0,2.883453827E0,8.506959686E0,9.430805837E0
1.345932542E0,-2.886597290E0,2.938090210E0,8.499624939E0,9.445022080E0
1.355974542E0,-2.848875732E0,3.025957489E0,8.531508636E0,9.489950015E0
1.366015542E0,-2.872227173E0,3.117267609E0,8.575816498E0,9.566173471E0
1.376057542E0,-2.869532776E0,3.153043213E0,8.637039185E0,9.631944027E0
1.386098542E0,-2.782114563E0,3.106639709E0,8.750952301E0,9.693840204E0
1.396140542E0,-2.716999969E0,3.036735077E0,8.934021606E0,9.819398700E0
1.406182542E0,-2.710713043E0,3.009641418E0,9.066945190E0,9.930528775E0
1.416223542E0,-2.753074951E0,3.013233948E0,9.238937531E0,1.010034491E1
1.426265542E0,-2.700983276E0,3.008443909E0,9.446855164E0,1.027565657E1
1.436306542E0,-2.543510742E0,2.952909393E0,9.569300537E0,1.033250374E1
1.446348542E0,-2.384541321E0,2.882855072E0,9.695338440E0,1.039213540E1
1.456389542E0,-2.270029449E0,2.840942230E0,9.858798523E0,1.050808711E1
1.466431542E0,-2.216440887E0,2.852168884E0,9.982441406E0,1.061586614E1
1.476473542E0,-2.213896179E0,2.903512115E0,1.005548950E1,1.069787773E1
1.486514542E0,-2.221829681E0,2.973566437E0,1.001716919E1,1.068280408E1
1.496556542E0,-2.245330811E0,3.091221771E0,9.855655060E0,1.057029324E1
1.506597542E0,-2.278112640E0,3.241359558E0,9.658664703E0,1.043963662E1
1.516639542E0,-2.251917114E0,3.380719757E0,9.440268860E0,1.027711404E1
1.526681542E0,-2.263742523E0,3.468137970E0,9.207053833E0,1.009566003E1
1.536722542E0,-2.326013031E0,3.524720306E0,8.994944916E0,9.936952445E0
1.546764542E0,-2.424807587E0,3.569028168E0,8.835975494E0,9.833214979E0
1.556805542E0,-2.530787201E0,3.588338013E0,8.749605103E0,9.789619145E0
1.566847542E0,-2.664159851E0,3.574416962E0,8.742270355E0,9.813332527E0
1.576889542E0,-2.798131256E0,3.546125793E0,8.731343079E0,9.830610288E0
1.586930542E0,-2.832110596E0,3.522774353E0,8.717871094E0,9.819982993E0
1.596972542E0,-2.741848297E0,3.514691162E0,8.713081055E0,9.787163405E0
1.607013542E0,-2.625689850E0,3.509601746E0,8.654403076E0,9.701043460E0
1.617055542E0,-2.510728912E0,3.527115326E0,8.628955994E0,9.654179599E0
1.627097542E0,-2.422262878E0,3.608396301E0,8.589138794E0,9.626068073E0
1.637138542E0,-2.368973694E0,3.691024475E0,8.571774902E0,9.628656345E0
1.647176458E0,-2.352507935E0,3.738775177E0,8.610843658E0,9.677776703E0
1.657217458E0,-2.367925873E0,3.756737823E0,8.628207550E0,9.703922791E0
1.667259458E0,-2.378254395E0,3.782184906E0,8.680598602E0,9.762879121E0
1.677301458E0,-2.328408051E0,3.776796112E0,8.766519928E0,9.825352135E0
1.687342458E0,-2.238594818E0,3.763324127E0,8.787925415E0,9.818429016E0
1.697384458E0,-2.179018707E0,3.792663116E0,8.736133118E0,9.769976351E0
1.707425458E0,-2.184108124E0,3.895648956E0,8.635242920E0,9.721822328E0
1.717467458E0,-2.255659332E0,3.998185730E0,8.538843384E0,9.694603369E0
1.727509458E0,-2.273921356E0,4.071682892E0,8.430917816E0,9.634816819E0
1.737550458E0,-2.260898438E0,4.131408691E0,8.350684662E0,9.587185919E0
1.747592458E0,-2.240391083E0,4.231400757E0,8.320597229E0,9.599814728E0
1.757633458E0,-2.254461823E0,4.450844421E0,8.302784271E0,9.686528833E0
1.767675458E0,-2.309098206E0,4.705914001E0,8.416547699E0,9.915434246E0
1.777717458E0,-2.335892487E0,4.934638367E0,8.610693970E0,1.019564123E1
1.787758458E0,-2.095193024E0,4.973407745E0,8.779692535E0,1.030570810E1
1.797800458E0,-1.667532349E0,4.708758087E0,8.974886627E0,1.027139994E1
1.807842458E0,-1.248852997E0,4.248165894E0,9.154064026E0,1.016874798E1
1.817883458E0,-9.686357117E-1,3.858825531E0,9.347312164E0,1.015879099E1
1.827925458E0,-8.623567200E-1,3.657793579E0,9.492510223E0,1.020935176E1
1.837966458E0,-9.424401855E-1,3.622317352E0,9.572743378E0,1.027846254E1
1.848008458E0,-9.973759460E-1,3.668870544E0,9.582173767E0,1.030890023E1
1.858050458E0,-1.064586182E0,3.721411285E0,9.429491272E0,1.019301483E1
1.868091458E0,-1.146615601E0,3.879033508E0,9.194479980E0,1.004490370E1
1.878133458E0,-1.202898560E0,4.177213440E0,9.019793243E0,1.001262939E1
1.888174458E0,-1.196012878E0,4.323459320E0,8.939859467E0,1.000219149E1
1.898216458E0,-9.554631042E-1,4.208049316E0,8.906029816E0,9.896360739E0
1.908258458E0,-6.138734436E-1,3.976929932E0,9.022038574E0,9.878764716E0
1.918299458E0,-3.562591553E-1,3.738475800E0,9.195078735E0,9.932401262E0
1.928341458E0,-2.151026917E-1,3.534599762E0,9.260642395E0,9.914593396E0
1.938382458E0,-2.404000854E-1,3.366199951E0,9.327702942E0,9.919432266E0
1.948424458E0,-3.076103210E-1,3.307971039E0,9.238189087E0,9.817404652E0
1.958466458E0,-4.285588074E-1,3.336860962E0,9.071735229E0,9.675468144E0
1.968507458E0,-6.138734436E-1,3.496129761E0,8.825646973E0,9.512718244E0
1.978549458E0,-8.662486267E-1,3.745361481E0,8.571475525E0,9.394057269E0
1.988590458E0,-1.002615051E0,3.987408142E0,8.309819641E0,9.271340955E0
1.998632458E0,-1.034349060E0,4.081262970E0,8.081394653E0,9.112383056E0
2.008674458E0,-9.857002258E-1,4.008364563E0,7.945327606E0,8.953592697E0
2.018715458E0,-8.535250854E-1,3.898043976E0,7.793543243E0,8.755716315E0
2.028757458E0,-6.884184265E-1,3.812871094E0,7.748486938E0,8.663195470E0
2.038799458E0,-6.221063232E-1,3.750301208E0,7.863298187E0,8.734027354E0
2.048840458E0,-6.743476868E-1,3.751498718E0,8.072563019E0,8.927192231E0
2.058882458E0,-7.358697510E-1,3.838018799E0,8.346493378E0,9.216064469E0
2.068923458E0,-6.890171814E-1,3.931873627E0,8.609496460E0,9.489879040E0
2.078965458E0,-4.611909485E-1,3.982618103E0,8.773555298E0,9.646202186E0
2.089007458E0,-2.023791504E-1,4.004472656E0,8.761879578E0,9.635729983E0
2.099048458E0,1.047821045E-3,4.056564331E0,8.634644165E0,9.540062637E0
2.109090458E0,2.008822632E-1,4.149071960E0,8.515491943E0,9.474637452E0
2.119131458E0,2.472857666E-1,4.237388306E0,8.363857269E0,9.379270671E0
2.129173458E0,1.384620667E-1,4.275858307E0,8.189469910E0,9.239564568E0
2.139215458E0,-6.780899048E-2,4.283941498E0,8.101452942E0,9.164621792E0
2.149256458E0,-2.636018372E-1,4.284390564E0,8.065976715E0,9.137038295E0
2.159298458E0,-3.839515686E-1,4.233496399E0,8.086633759E0,9.135839103E0
2.169340458E0,-4.788542175E-1,4.144730988E0,8.219108276E0,9.217474555E0
2.179381458E0,-5.258564758E-1,4.034560089E0,8.376131744E0,9.312023579E0
2.189423458E0,-4.933740234E-1,3.925287323E0,8.464897156E0,9.343756330E0
2.199464458E0,-4.363426208E-1,3.834575958E0,8.514294434E0,9.348132293E0
2.209506458E0,-3.980223083E-1,3.794309692E0,8.430169373E0,9.253267717E0
2.219548458E0,-4.662803650E-1,3.829486542E0,8.302784271E0,9.155250472E0
2.229589458E0,-5.721102905E-1,3.865860901E0,8.223149872E0,9.104525496E0
2.239631458E0,-6.345304871E-1,3.868555298E0,8.212072906E0,9.099807166E0
2.249673458E0,-6.722520447E-1,3.860472107E0,8.179740143E0,9.069912707E0
2.259714458E0,-5.840853882E-1,3.855831757E0,8.226592712E0,9.104143119E0
2.269756458E0,-4.998106384E-1,3.910318451E0,8.274792480E0,9.165838295E0
2.279797458E0,-5.083428955E-1,3.960164795E0,8.349636841E0,9.255147383E0
2.289839458E0,-5.240602112E-1,4.024231567E0,8.463999023E0,9.386605259E0
2.299881458E0,-5.514532471E-1,4.060905304E0,8.567433929E0,9.497156243E0
2.309922458E0,-5.050497437E-1,4.067641296E0,8.633147278E0,9.556778374E0
2.319964458E0,-4.938230896E-1,4.049229584E0,8.710686035E0,9.618532771E0
2.330006458E0,-5.026547241E-1,4.072281647E0,8.729397125E0,9.645647399E0
2.340047458E0,-4.836442566E-1,4.135599976E0,8.670270081E0,9.618247356E0
2.350089458E0,-4.333488464E-1,4.190984802E0,8.638985138E0,9.611670461E0
2.360130458E0,-4.040098572E-1,4.209097137E0,8.599916382E0,9.583229333E0
2.370172458E0,-4.102967834E-1,4.234095154E0,8.594976654E0,9.590074499E0
2.380214458E0,-4.261637878E-1,4.271667023E0,8.621172180E0,9.630854816E0
2.390255458E0,-4.082011414E-1,4.359234924E0,8.588240662E0,9.639887705E0
2.400297458E0,-3.698808289E-1,4.424948273E0,8.586893463E0,9.667042898E0
2.410339458E0,-3.158432007E-1,4.497247925E0,8.613987122E0,9.722436421E0
2.420380458E0,-2.962339783E-1,4.644391937E0,8.577014008E0,9.758242686E0
2.430422458E0,-3.086581421E-1,4.832999725E0,8.597521362E0,9.867650671E0
2.440463458E0,-3.454815674E-1,4.998405762E0,8.615334320E0,9.966313417E0
2.450505458E0,-3.173400879E-1,5.098098450E0,8.666976929E0,1.006020883E1
2.460547458E0,-2.814147949E-1,5.152435455E0,8.768166504E0,1.017386501E1
2.470588458E0,-3.811074829E-1,5.181924133E0,8.815168762E0,1.023253541E1
2.480630458E0,-4.619393921E-1,5.253774719E0,8.864416351E0,1.031471832E1
2.490672458E0,-4.363426208E-1,5.347779236E0,8.913364563E0,1.040371114E1
2.500713458E0,-4.213737488E-1,5.399122467E0,8.925339661E0,1.043981644E1
2.510755458E0,-4.153862000E-1,5.410798187E0,8.926237793E0,1.044638712E1
2.520796458E0,-3.098556519E-1,5.392386475E0,8.988208923E0,1.048626445E1
2.530838458E0,-2.040257263E-1,5.357359314E0,9.105115814E0,1.056626989E1
2.540880458E0,-2.174977112E-1,5.344336395E0,9.174870758E0,1.062014549E1
2.550921458E0,-3.583547974E-1,5.361999664E0,9.252110138E0,1.069957946E1
2.560963458E0,-7.445516968E-1,5.510041809E0,9.261091461E0,1.080197820E1
2.571005458E0,-1.204545135E0,5.776188354E0,9.226064301E0,1.095150873E1
2.581046458E0,-1.475481720E0,5.867648163E0,9.323661346E0,1.111472007E1
2.591088458E0,-1.435065765E0,5.661227417E0,9.378148041E0,1.104801205E1
2.601130458E0,-9.925859070E-1,5.151687012E0,9.789642334E0,1.110685387E1
2.611171458E0,-4.201762390E-1,4.445006561E0,1.039857605E1,1.131658143E1
2.621213458E0,8.322692871E-2,3.862118683E0,1.087458618E1,1.154034281E1
2.631254458E0,3.733236694E-1,3.410058746E0,1.121916962E1,1.173190684E1
2.641296458E0,2.303709412E-1,3.177442474E0,1.156899216E1,1.199961628E1
2.651338708E0,-5.149291992E-2,3.089874573E0,1.156345367E1,1.196927054E1
2.661379708E0,-2.528242493E-1,3.008743286E0,1.123294098E1,1.163165591E1
2.671421708E0,-3.342549133E-1,2.976260834E0,1.065499283E1,1.106791431E1
2.681463708E0,-4.903802490E-1,3.096011810E0,9.944869537E0,1.042718524E1
2.691504708E0,-7.924520874E-1,3.356769562E0,9.205706635E0,9.830611214E0
2.701546708E0,-1.057401123E0,3.563190308E0,8.583600311E0,9.353748800E0
2.711588708E0,-1.225651245E0,3.654799805E0,8.273295593E0,9.127277938E0
2.721629708E0,-1.397793274E0,3.675756226E0,8.120613098E0,9.022713946E0
2.731671708E0,-1.481020203E0,3.682641907E0,8.111033020E0,9.030178786E0
2.741712708E0,-1.423988800E0,3.616778870E0,8.255482635E0,9.124791890E0
2.751754708E0,-1.221759338E0,3.516337738E0,8.528365173E0,9.305393033E0
2.761796708E0,-9.723779297E-1,3.367996216E0,8.825646973E0,9.496365717E0
2.771837708E0,-5.635780334E-1,3.122656403E0,9.160800018E0,9.694785206E0
2.781879708E0,-1.053808594E-1,2.878364410E0,9.556876373E0,9.981481494E0
2.791921708E0,3.439846802E-1,2.710263977E0,9.918524323E0,1.028790460E1
2.801962708E0,6.957531738E-1,2.580483856E0,1.001492386E1,1.036540734E1
2.812004708E0,8.572673035E-1,2.484533386E0,1.001806732E1,1.035709835E1
2.822046708E0,8.366102600E-1,2.473157043E0,9.800868988E0,1.014265524E1
2.832087708E0,6.460565186E-1,2.540067902E0,9.385482788E0,9.744568802E0
2.842129708E0,3.486250305E-1,2.656226349E0,8.904383240E0,9.298662200E0
2.852170708E0,7.289840698E-2,2.863694916E0,8.352031860E0,8.829637532E0
2.862212708E0,-1.052311707E-1,3.005450134E0,7.801626434E0,8.361170919E0
2.872254708E0,-2.507286072E-1,3.032992859E0,7.482190704E0,8.077443175E0
2.882295708E0,-3.574566650E-1,3.074456635E0,7.180418243E0,7.819108966E0
2.892337708E0,-4.755610657E-1,3.136278076E0,6.938221893E0,7.628979063E0
2.902379708E0,-6.480024719E-1,3.171754303E0,6.843169556E0,7.570264337E0
2.912420708E0,-7.664062500E-1,3.174149323E0,6.730453949E0,7.480749483E0
2.922462708E0,-8.647517395E-1,3.196303253E0,6.620432739E0,7.402315834E0
2.932504708E0,-1.003812561E0,3.239413605E0,6.530918884E0,7.358963353E0
2.942545708E0,-1.095571747E0,3.326831818E0,6.488257599E0,7.373301436E0
2.952587708E0,-1.104553070E0,3.413351898E0,6.485263824E0,7.411454347E0
2.962629708E0,-1.116378479E0,3.475622406E0,6.541247406E0,7.490939170E0
2.972670708E0,-1.122665405E0,3.486250305E0,6.677913208E0,7.616353696E0
2.982712708E0,-1.044228516E0,3.456162872E0,6.883136444E0,7.772582730E0
2.992754708E0,-9.445358276E-1,3.419189758E0,7.112609253E0,7.948095175E0
3.002795708E0,-8.815168762E-1,3.440146179E0,7.319329376E0,8.135370935E0
3.012837708E0,-8.690927124E-1,3.538791046E0,7.534731445E0,8.369620192E0
3.022879708E0,-8.815168762E-1,3.697610779E0,7.755073242E0,8.636582569E0
3.032920708E0,-9.851014709E-1,3.875141602E0,7.989336090E0,8.934015810E0
3.042962708E0,-1.053958282E0,4.095034332E0,8.189619598E0,9.216832613E0
3.053004708E0,-1.016685791E0,4.388124847E0,8.437953186E0,9.564953928E0
3.063045708E0,-1.016386414E0,4.683760071E0,8.566086731E0,9.815726750E0
3.073087708E0,-1.006357269E0,4.932393036E0,8.556656342E0,9.927619239E0
3.083128708E0,-9.250762939E-1,5.111570435E0,8.652307434E0,1.009189489E1
3.093170708E0,-8.005352783E-1,5.203329620E0,8.699010315E0,1.016800257E1
3.103212708E0,-7.331753540E-1,5.208718414E0,8.828940125E0,1.027708506E1
3.113253708E0,-7.661068726E-1,5.199437714E0,9.044641571E0,1.046071763E1
3.123295708E0,-9.731263733E-1,5.248685303E0,9.256750488E0,1.068564935E1
3.133337708E0,-1.219064941E0,5.278173981E0,9.398056641E0,1.084752085E1
3.143378708E0,-1.309626617E0,5.276826782E0,9.405092010E0,1.086350673E1
3.153420708E0,-1.253942413E0,5.288203125E0,9.449848938E0,1.090124345E1
3.163462708E0,-1.150058441E0,5.306165771E0,9.465566254E0,1.091214801E1
3.173503708E0,-1.020727386E0,5.270390167E0,9.554181976E0,1.095907342E1
3.183545708E0,-9.174421692E-1,5.155429230E0,9.836494904E0,1.114346367E1
3.193587708E0,-8.201445007E-1,5.090464325E0,1.015158966E1,1.138596666E1
3.203628708E0,-7.394622803E-1,5.257516937E0,1.031729507E1,1.160322655E1
3.213670708E0,-6.221063232E-1,5.380860443E0,1.043001068E1,1.175269323E1
3.223712708E0,-3.537144470E-1,5.167554016E0,1.044078827E1,1.165498984E1
3.233753708E0,1.014889526E-1,4.731361084E0,1.037821838E1,1.140629188E1
3.243795708E0,5.848338318E-1,4.274660797E0,1.042761566E1,1.128494235E1
3.253837708E0,1.006956024E0,3.843557281E0,1.066666855E1,1.138264956E1
3.263878708E0,1.336420898E0,3.281925201E0,1.105780518E1,1.161172292E1
3.273920708E0,1.436412964E0,2.593806152E0,1.152049301E1,1.189591828E1
3.283962708E0,1.150208130E0,2.203118591E0,1.206206680E1,1.231544420E1
3.294003708E0,7.397616577E-1,2.227517853E0,1.197045731E1,1.219839871E1
3.304045708E0,2.918930054E-1,2.575993195E0,1.098939743E1,1.129104948E1
3.314087708E0,-1.300794983E-1,3.059787140E0,1.012240036E1,1.057554760E1
3.324128708E0,-3.201841736E-1,3.512595520E0,9.516610107E0,1.014922229E1
3.334170708E0,-2.480342102E-1,3.826343079E0,8.711584167E0,9.518094401E0
3.344212708E0,2.844085693E-3,3.989803162E0,8.196505280E0,9.115987942E0
3.354253708E0,4.340972900E-1,4.002526703E0,7.987539825E0,8.944800329E0
3.364295708E0,7.694000244E-1,3.816463623E0,8.177794189E0,9.057245099E0
3.374336708E0,9.298663330E-1,3.501518555E0,8.541388092E0,9.277962822E0
3.384378708E0,8.598120117E-1,3.208727417E0,8.924291840E0,9.522509815E0
3.394420708E0,6.544390869E-1,3.076402588E0,9.235045624E0,9.755952597E0
3.404461708E0,3.489244080E-1,2.994522858E0,9.153764648E0,9.637443781E0
3.414503708E0,-1.796264648E-3,2.986888733E0,8.895701294E0,9.383763053E0
3.424545708E0,-2.977308655E-1,3.081492004E0,8.507259064E0,9.053048847E0
3.434586708E0,-4.602928162E-1,3.172353058E0,8.017776947E0,8.634838769E0
3.444628708E0,-5.526507568E-1,3.259621582E0,7.554340668E0,8.246127494E0
3.454670708E0,-5.539979553E-1,3.352278900E0,7.228019257E0,7.986798478E0
3.464711708E0,-5.918692017E-1,3.384911041E0,7.032076721E0,7.826751237E0
3.474753708E0,-5.881269836E-1,3.415597229E0,6.905440063E0,7.726402801E0
3.484795708E0,-6.095324707E-1,3.433110809E0,6.783294067E0,7.626982239E0
3.494836708E0,-7.466473389E-1,3.472928009E0,6.756350098E0,7.633280936E0
3.504878708E0,-9.714797974E-1,3.506607971E0,6.844367065E0,7.751479406E0
3.514920708E0,-1.119671631E0,3.476819916E0,7.018155670E0,7.911791851E0
3.524961708E0,-1.078357544E0,3.469634857E0,7.168742523E0,8.036920455E0
3.535003708E0,-8.993298340E-1,3.490740967E0,7.201674042E0,8.053457373E0
3.545045708E0,-7.099736023E-1,3.504212952E0,7.151678009E0,7.995628135E0
3.555086708E0,-5.533992004E-1,3.581751709E0,7.095395050E0,7.967422852E0
3.565128708E0,-4.688250732E-1,3.770060120E0,7.028184814E0,7.989276065E0
3.575170708E0,-4.790039062E-1,3.955075378E0,7.158863068E0,8.192764272E0
3.585211708E0,-5.266049194E-1,4.023782501E0,7.544012146E0,8.566227736E0
3.595253708E0,-6.158193970E-1,4.008065186E0,7.967032471E0,8.939654717E0
3.605295708E0,-7.464976501E-1,3.984564056E0,8.350385284E0,9.282399682E0
3.615336708E0,-8.653504944E-1,3.992497559E0,8.716523895E0,9.626352219E0
3.625378708E0,-9.187893677E-1,4.003873901E0,8.895850983E0,9.798537892E0
3.635420708E0,-9.184899902E-1,4.006717987E0,8.917855225E0,9.819651455E0
3.645461667E0,-9.987231445E-1,4.062851257E0,8.936266937E0,9.867171582E0
3.655503667E0,-1.058299255E0,4.124822388E0,8.909023590E0,9.874454839E0
3.665545667E0,-1.044827271E0,4.170926514E0,8.936416626E0,9.917047651E0
3.675586667E0,-1.063688049E0,4.204157410E0,9.115294647E0,1.009430375E1
3.685628667E0,-1.060394897E0,4.220623169E0,9.362131348E0,1.032412711E1
3.695670667E0,-1.007255402E0,4.194427643E0,9.656269684E0,1.057597896E1
3.705712667E0,-9.536668396E-1,4.119583282E0,9.902058563E0,1.076713568E1
3.715753667E0,-8.966354370E-1,4.092190247E0,1.014066238E1,1.097191914E1
3.725795667E0,-8.652008057E-1,4.123026123E0,1.034274216E1,1.116782128E1
3.735837667E0,-7.878117371E-1,4.163142700E0,1.038181091E1,1.121313526E1
3.745878667E0,-8.152047729E-1,4.244124298E0,1.033346146E1,1.120078460E1
3.755920667E0,-1.073268127E0,4.558021545E0,1.017060013E1,1.119681079E1
3.765962667E0,-1.398841095E0,5.047054596E0,1.010009674E1,1.137723476E1
3.776003667E0,-1.589394836E0,5.339546356E0,1.025472519E1,1.167031790E1
3.786045667E0,-1.366208954E0,5.231022034E0,1.049677185E1,1.180730019E1
3.796087667E0,-9.054670715E-1,4.691992950E0,1.096200439E1,1.195826947E1
3.806128667E0,-4.614903259E-1,4.110901337E0,1.130598907E1,1.203901458E1
3.816170667E0,-5.852828979E-2,3.549269257E0,1.139295822E1,1.193315695E1
3.826212667E0,2.529739380E-2,3.112627258E0,1.158994858E1,1.200066650E1
3.836253667E0,-2.571652222E-1,2.951262817E0,1.156120834E1,1.193472348E1
3.846295667E0,-6.318360901E-1,2.882256317E0,1.125195145E1,1.163241289E1
3.856337667E0,-9.177415466E-1,2.844983826E0,1.079120956E1,1.119760628E1
3.866378667E0,-1.140328674E0,2.944676514E0,1.005204666E1,1.053637088E1
3.876420667E0,-1.292711792E0,3.239114227E0,9.440568237E0,1.006415885E1
3.886462667E0,-1.266516266E0,3.468886414E0,8.841813354E0,9.582009173E0
3.896503667E0,-1.186283112E0,3.538491669E0,8.487051086E0,9.271365976E0
3.906545667E0,-1.062191162E0,3.539689178E0,8.381969604E0,9.160516579E0
3.916587667E0,-9.268725586E-1,3.506757660E0,8.400381317E0,9.150019033E0
3.926628667E0,-7.604187012E-1,3.394640808E0,8.601263580E0,9.278122547E0
3.936670667E0,-4.912783813E-1,3.152743835E0,8.880732422E0,9.436554270E0
3.946712667E0,-2.248324585E-1,2.819536743E0,9.023236084E0,9.456168701E0
3.956753667E0,-1.886077881E-2,2.588417358E0,9.135053558E0,9.494707139E0
3.966795667E0,1.582209778E-1,2.444117432E0,9.130263519E0,9.453065949E0
3.976837667E0,2.859054565E-1,2.332150269E0,9.017847290E0,9.318918207E0
3.986878667E0,4.125421143E-1,2.208657074E0,8.822353821E0,9.103970782E0
3.996920667E0,5.102888489E-1,2.103425903E0,8.579858093E0,8.848658663E0
4.006962667E0,4.517605591E-1,2.058818665E0,8.322243805E0,8.585019735E0
4.017003667E0,2.326162720E-1,2.099833374E0,8.181536407E0,8.449908196E0
4.027045667E0,7.559280396E-2,2.180665283E0,7.950267334E0,8.244256548E0
4.037087667E0,1.167572021E-2,2.245031433E0,7.546706543E0,7.873568575E0
4.047129667E0,-8.083190918E-2,2.396366730E0,7.166497192E0,7.556969585E0
4.057170667E0,-2.130070496E-1,2.691702576E0,6.817123718E0,7.332380960E0
4.067212667E0,-2.414479065E-1,2.943928070E0,6.464307404E0,7.107199152E0
4.077254667E0,-2.730322266E-1,3.122506714E0,6.256240082E0,6.997509181E0
4.087295667E0,-2.836601257E-1,3.303330688E0,6.133345642E0,6.972114849E0
4.097337667E0,-3.620970154E-1,3.490291901E0,6.181246033E0,7.107816424E0
4.107379667E0,-4.671784973E-1,3.610342255E0,6.495891724E0,7.446437821E0
4.117420667E0,-4.784051514E-1,3.578907623E0,6.911277924E0,7.797641554E0
4.127462667E0,-5.060975647E-1,3.435056763E0,7.300917664E0,8.084500506E0
4.137504667E0,-5.583389282E-1,3.407064972E0,7.714208221E0,8.451558588E0
4.147545667E0,-5.536985779E-1,3.442241821E0,8.102351074E0,8.820640782E0
4.157587667E0,-4.751119995E-1,3.399430847E0,8.351433105E0,9.029302100E0
4.167629667E0,-4.089495850E-1,3.332220612E0,8.555009766E0,9.190164637E0
4.177670667E0,-3.433859253E-1,3.337459717E0,8.673563232E0,9.299852171E0
4.187712667E0,-3.576063538E-1,3.456761627E0,8.704099731E0,9.372216141E0
4.197754667E0,-4.646337891E-1,3.669319611E0,8.670569458E0,9.426482148E0
4.207795667E0,-5.330415344E-1,3.892954559E0,8.649014282E0,9.499719813E0
4.217837667E0,-5.553451538E-1,4.062252502E0,8.757388916E0,9.669651713E0
4.227879667E0,-5.536985779E-1,4.153263245E0,9.006770325E0,9.933684582E0
4.237920667E0,-4.998106384E-1,4.191733246E0,9.297914886E0,1.021134954E1
4.247962667E0,-4.328997803E-1,4.202361145E0,9.646240540E0,1.053077385E1
4.258004667E0,-3.064128113E-1,4.184697876E0,9.956694946E0,1.080469154E1
4.268046667E0,-2.468367004E-1,4.135150909E0,1.032373169E1,1.112384095E1
4.278087667E0,-2.965333557E-1,4.019441528E0,1.066217789E1,1.139850339E1
4.288129667E0,-2.923420715E-1,3.893403625E0,1.083776276E1,1.151959883E1
4.298171667E0,-2.814147949E-1,3.832480316E0,1.094134735E1,1.159655904E1
4.308212667E0,-4.493655396E-1,3.935316467E0,1.087353836E1,1.157248813E1
4.318254667E0,-8.866062927E-1,4.393064575E0,1.060694275E1,1.151487393E1
4.328296667E0,-1.266216888E0,4.999303894E0,1.039034317E1,1.159980930E1
4.338337667E0,-1.320553894E0,5.307063904E0,1.044527893E1,1.179036224E1
4.348379667E0,-1.077160034E0,5.278323669E0,1.059242294E1,1.188361891E1
4.358421667E0,-5.137316895E-1,4.837191010E0,1.046668442E1,1.154182914E1
4.368462667E0,9.160949707E-2,4.280947723E0,1.052147049E1,1.135941226E1
4.378504667E0,4.815486145E-1,3.790118408E0,1.068073929E1,1.134350380E1
4.388546667E0,7.216493225E-1,3.291056213E0,1.078612015E1,1.130009808E1
4.398587667E0,6.665638733E-1,2.885250092E0,1.109552673E1,1.148388823E1
4.408629667E0,4.897814941E-1,2.719394989E0,1.117111954E1,1.150777592E1
4.418671667E0,2.953358459E-1,2.734663239E0,1.087772964E1,1.122009842E1
4.428713667E0,2.149530029E-1,2.890489197E0,1.044677582E1,1.084141400E1
4.438754667E0,2.085163879E-1,3.113675079E0,1.005069946E1,1.052402068E1
4.448796667E0,4.173321533E-1,3.288361816E0,9.630373535E0,1.018487035E1
4.458838667E0,7.497908020E-1,3.285966797E0,9.278904419E0,9.872073301E0
4.468879667E0,1.110690308E0,3.199446716E0,9.087751923E0,9.698315692E0
4.478921667E0,1.354982300E0,3.077001343E0,9.007219391E0,9.614255845E0
4.488963667E0,1.385369110E0,2.918031921E0,9.037755890E0,9.597665830E0
4.499004667E0,1.300794983E0,2.759960632E0,9.053323517E0,9.553644173E0
4.509046667E0,1.062340851E0,2.690205688E0,9.041647797E0,9.493006352E0
4.519088667E0,7.285350037E-1,2.748883667E0,8.818611603E0,9.265799224E0
4.529129667E0,4.099974060E-1,2.872975616E0,8.439899139E0,8.924908081E0
4.539171667E0,1.375639343E-1,2.981350250E0,7.993677063E0,8.532657625E0
4.549213667E0,-4.685256958E-2,3.096610565E0,7.555388489E0,8.165481454E0
4.559255667E0,-1.032852173E-1,3.223696289E0,7.213798828E0,7.902011082E0
4.569296667E0,-1.532812500E-1,3.266207886E0,6.918462982E0,7.652237524E0
4.579338667E0,-1.523831177E-1,3.291804657E0,6.719227295E0,7.483796761E0
4.589380667E0,-1.773811340E-1,3.353925476E0,6.579567719E0,7.387218118E0
4.599421667E0,-2.264790344E-1,3.482358398E0,6.483766937E0,7.363242931E0
4.609463667E0,-2.978805542E-1,3.596570892E0,6.476132812E0,7.413794657E0
4.619505667E0,-4.272116089E-1,3.675756226E0,6.570586395E0,7.540974683E0
4.629546667E0,-4.785548401E-1,3.730991364E0,6.661297760E0,7.649980336E0
4.639588667E0,-4.390370178E-1,3.755240936E0,6.754404144E0,7.740579005E0
4.649629958E0,-3.918850708E-1,3.829336853E0,6.932982788E0,7.929920869E0
4.659670958E0,-3.230282593E-1,3.944597168E0,7.051835632E0,8.086567866E0
4.669712958E0,-3.213816833E-1,4.059408417E0,7.128027191E0,8.209193293E0
4.679754958E0,-3.055146790E-1,4.099075928E0,7.217541046E0,8.305941333E0
4.689796958E0,-3.911366272E-1,4.121379547E0,7.300169220E0,8.392331492E0
4.699837958E0,-5.429209900E-1,4.260290680E0,7.399113464E0,8.555215949E0
4.709879958E0,-7.379653931E-1,4.464017029E0,7.535030823E0,8.789125693E0
4.719921958E0,-9.889933777E-1,4.645439758E0,7.775879974E0,9.111669870E0
4.729962958E0,-1.197509766E0,4.748275909E0,8.088430023E0,9.455308244E0
4.740004958E0,-1.282383270E0,4.685107269E0,8.346194000E0,9.656795083E0
4.750046958E0,-1.254241791E0,4.510121155E0,8.613238678E0,9.803172743E0
4.760088958E0,-1.237776031E0,4.326902161E0,8.857979736E0,9.935692066E0
4.770129958E0,-1.189725952E0,4.176614685E0,9.059161377E0,1.004629100E1
4.780171958E0,-1.135089569E0,4.039799194E0,9.421408081E0,1.031364805E1
4.790213958E0,-1.092278595E0,3.951632538E0,9.747729492E0,1.057481454E1
4.800254958E0,-1.121916962E0,3.937861176E0,1.007015900E1,1.087076587E1
4.810296958E0,-1.145418091E0,3.961511993E0,1.043165726E1,1.121717580E1
4.820338958E0,-1.151555328E0,4.016447754E0,1.068388275E1,1.147184740E1
4.830379958E0,-1.068927155E0,4.068689117E0,1.080183746E1,1.159208907E1
4.840421958E0,-1.048419800E0,4.102219391E0,1.089599167E1,1.168974005E1
4.850463958E0,-1.349892883E0,4.440066833E0,1.074929672E1,1.170827845E1
4.860505958E0,-1.764231262E0,5.025948486E0,1.073612411E1,1.198486676E1
4.870546958E0,-1.866169281E0,5.200485535E0,1.111573471E1,1.241318637E1
4.880588958E0,-1.461860046E0,4.931943970E0,1.140208923E1,1.250874674E1
4.890630958E0,-8.753796387E-1,4.433929596E0,1.169338348E1,1.253639655E1
4.900671958E0,-3.495231628E-1,3.718267822E0,1.196581696E1,1.253508905E1
4.910713958E0,-2.784210205E-2,3.081192627E0,1.215711914E1,1.254153376E1
4.920755958E0,-1.457968140E-1,2.720143433E0,1.227776825E1,1.257632817E1
4.930796958E0,-5.101391602E-1,2.575244751E0,1.205278610E1,1.233538732E1
4.940838958E0,-8.918453979E-1,2.509381714E0,1.137559433E1,1.168317299E1
4.950880958E0,-1.203647003E0,2.570005646E0,1.057730438E1,1.095139549E1
4.960922958E0,-1.313967590E0,2.751428375E0,9.965676270E0,1.042168760E1
4.970963958E0,-1.310824127E0,2.925067291E0,9.316027222E0,9.852037441E0
4.981005958E0,-1.213975525E0,2.998714142E0,8.948242035E0,9.515096352E0
4.991047958E0,-1.011446686E0,2.980601807E0,8.916208649E0,9.455463405E0
5.001088958E0,-7.867639160E-1,2.907853088E0,9.059161377E0,9.546884932E0
5.011130958E0,-4.590953064E-1,2.706970825E0,9.169781342E0,9.572008640E0
5.021172958E0,-2.683918762E-1,2.436483307E0,9.350006561E0,9.665976816E0
5.031214958E0,-2.947370911E-1,2.279310150E0,9.418114929E0,9.694483665E0
5.041255958E0,-4.360432434E-1,2.265538788E0,9.260941772E0,9.543995087E0
5.051297958E0,-5.131329346E-1,2.261347504E0,9.137149200E0,9.426796564E0
5.061339958E0,-4.803511047E-1,2.193388824E0,8.956624603E0,9.233786656E0
5.071380958E0,-3.686833191E-1,2.146835632E0,8.686436462E0,8.955389943E0
5.081422958E0,-2.930905151E-1,2.122586060E0,8.468190308E0,8.735074168E0
5.091464958E0,-2.116598511E-1,2.135010223E0,8.265960846E0,8.539858152E0
5.101505958E0,-1.336720276E-1,2.195185089E0,7.979157257E0,8.276693562E0
5.111547958E0,-1.088237000E-1,2.272574158E0,7.663763123E0,7.994354327E0
5.121589958E0,-1.654060364E-1,2.387834473E0,7.380552063E0,7.758972959E0
5.131631958E0,-2.366578674E-1,2.592009888E0,7.104376373E0,7.566153967E0
5.141672958E0,-2.728825378E-1,2.783012695E0,6.840175781E0,7.389697508E0
5.151714958E0,-3.171903992E-1,2.870430908E0,6.700366516E0,7.296224695E0
5.161756958E0,-3.180885315E-1,2.885399780E0,6.697971497E0,7.299968108E0
5.171797958E0,-2.853067017E-1,2.891237640E0,6.768025818E0,7.365244631E0
5.181839958E0,-3.333567810E-1,2.926713867E0,6.907086639E0,7.508969746E0
5.191881958E0,-4.761598206E-1,2.994373169E0,7.164551239E0,7.779703934E0
5.201923958E0,-5.779481506E-1,3.038531342E0,7.481292572E0,8.095457697E0
5.211964958E0,-5.658233643E-1,3.063379669E0,7.820038147E0,8.417686600E0
5.222006958E0,-5.499563599E-1,3.081192627E0,8.096064148E0,8.680003150E0
5.232048958E0,-5.766009521E-1,3.134481812E0,8.230484619E0,8.826002603E0
5.242089958E0,-4.601431274E-1,3.247047729E0,8.393345947E0,9.011287746E0
5.252131958E0,-3.131488037E-1,3.304228821E0,8.596024475E0,9.214533469E0
5.262173958E0,-2.814147949E-1,3.320544891E0,8.717122650E0,9.332386617E0
5.272214958E0,-3.248245239E-1,3.394191742E0,8.735833740E0,9.377677734E0
5.282256958E0,-5.215155029E-1,3.567531281E0,8.789571991E0,9.500307029E0
5.292298958E0,-8.229885864E-1,3.787723389E0,8.793613586E0,9.609984318E0
5.302340958E0,-1.008003845E0,3.955674133E0,8.802894287E0,9.703317857E0
5.312381958E0,-1.085093536E0,4.006568298E0,8.951984253E0,9.867524491E0
5.322423958E0,-1.101708984E0,4.040547638E0,9.119336243E0,1.003504267E1
5.332465958E0,-1.038240967E0,4.105213165E0,9.289382629E0,1.020898374E1
5.342506958E0,-1.024619293E0,4.150119781E0,9.498348083E0,1.041594716E1
5.352548958E0,-1.048868866E0,4.187691650E0,9.692194977E0,1.061016167E1
5.362590958E0,-1.025667114E0,4.194727020E0,9.835297394E0,1.074154563E1
5.372632958E0,-1.009650421E0,4.073778534E0,9.958640900E0,1.080692343E1
5.382673958E0,-1.109492798E0,3.968547363E0,1.003004242E1,1.084352772E1
5.392715958E0,-1.313967590E0,4.017944641E0,1.003932312E1,1.089304359E1
5.402757958E0,-1.691332855E0,4.333937531E0,9.934541016E0,1.096990094E1
5.412798958E0,-2.087109833E0,4.955894165E0,9.824968872E0,1.120030927E1
5.422840958E0,-2.379302216E0,5.585035858E0,1.008797195E1,1.177373699E1
5.432882958E0,-2.239792328E0,5.653293915E0,1.029035110E1,1.195272888E1
5.442924958E0,-1.641636200E0,5.089566193E0,1.016386414E1,1.148489389E1
5.452965958E0,-7.782316589E-1,4.269421692E0,1.023331970E1,1.111550441E1
5.463007958E0,-7.304809570E-2,3.693868561E0,1.040591080E1,1.104232677E1
5.473049958E0,2.625540161E-1,3.248993683E0,1.055410263E1,1.104599370E1
5.483090958E0,2.154020691E-1,2.777474213E0,1.083387085E1,1.118630943E1
5.493132958E0,-1.658551025E-1,2.661315765E0,1.109223358E1,1.140823191E1
5.503174958E0,-6.795867920E-1,2.898871765E0,1.097338074E1,1.137015306E1
5.513216958E0,-9.924362183E-1,3.246898041E0,1.051069290E1,1.104544892E1
5.523257958E0,-1.042432251E0,3.513343964E0,1.005728577E1,1.070416965E1
5.533299958E0,-7.834707642E-1,3.674858093E0,9.776320038E0,1.047353054E1
5.543341958E0,-2.139051819E-1,3.619024200E0,9.445058899E0,1.011692785E1
5.553382958E0,3.180885315E-1,3.402125244E0,9.333091736E0,9.938925387E0
5.563424958E0,6.162684631E-1,3.177143097E0,9.469158783E0,1.000694724E1
5.573466958E0,8.551716614E-1,2.890189819E0,9.453142090E0,9.922016485E0
5.583508958E0,7.210505676E-1,2.766846313E0,9.304650879E0,9.734057757E0
5.593549958E0,3.546125793E-1,2.896027679E0,9.118737488E0,9.574137025E0
5.603591958E0,5.433700562E-2,3.042423248E0,8.711883545E0,9.228012063E0
5.613633958E0,-1.622625732E-1,3.047213287E0,8.252189484E0,8.798321956E0
5.623674958E0,-3.171903992E-1,3.051254883E0,7.744595032E0,8.330037114E0
5.633716958E0,-3.564088440E-1,3.129392395E0,7.298372955E0,7.948985584E0
5.643758958E0,-4.468208313E-1,3.225043488E0,6.914271698E0,7.642493537E0
5.653801167E0,-5.686674500E-1,3.343447266E0,6.627168732E0,7.444554230E0
5.663842167E0,-7.421566772E-1,3.486549683E0,6.457870789E0,7.376375827E0
5.673884167E0,-9.294172668E-1,3.564387817E0,6.421047363E0,7.402602665E0
5.683926167E0,-1.013991394E0,3.541186066E0,6.500382385E0,7.471489039E0
5.693967167E0,-9.952803040E-1,3.457809448E0,6.706653442E0,7.610928292E0
5.704009167E0,-8.985813904E-1,3.378773804E0,6.893614655E0,7.729520292E0
5.714051167E0,-8.156538391E-1,3.347788239E0,7.010671234E0,7.811689217E0
5.724093167E0,-7.165599060E-1,3.392395477E0,7.122638397E0,7.921728530E0
5.734134167E0,-6.192622375E-1,3.394042053E0,7.244185638E0,8.023791669E0
5.744176167E0,-5.875282288E-1,3.334016876E0,7.367678833E0,8.108239595E0
5.754218167E0,-5.649252319E-1,3.264411621E0,7.480244751E0,8.181050378E0
5.764259167E0,-6.870712280E-1,3.280877380E0,7.605384521E0,8.311323419E0
5.774301167E0,-8.774752808E-1,3.404520264E0,7.672594757E0,8.439753041E0
5.784343167E0,-1.130149841E0,3.523073730E0,7.801476746E0,8.634368917E0
5.794385167E0,-1.325194244E0,3.617976379E0,7.952512665E0,8.836761316E0
5.804426167E0,-1.417402496E0,3.697012024E0,7.975115662E0,8.903897886E0
5.814468167E0,-1.485061798E0,3.817062378E0,8.046666870E0,9.029076446E0
5.824510167E0,-1.405726776E0,3.965852966E0,8.190817108E0,9.208340916E0
5.834552167E0,-1.332678680E0,4.054768066E0,8.322992249E0,9.353575600E0
5.844593167E0,-1.328786774E0,4.077371063E0,8.600664825E0,9.610518431E0
5.854635167E0,-1.275647278E0,4.080664215E0,8.873846741E0,9.850088953E0
5.864677167E0,-1.237177277E0,4.099225616E0,9.084009705E0,1.004258386E1
5.874718167E0,-1.225202179E0,4.189936981E0,9.328601074E0,1.029948981E1
5.884760167E0,-1.311273193E0,4.273313599E0,9.538764038E0,1.053416660E1
5.894802167E0,-1.437760162E0,4.342469788E0,9.782008209E0,1.079869820E1
5.904844167E0,-1.427281952E0,4.410129089E0,1.000803818E1,1.102937897E1
5.914885167E0,-1.401535492E0,4.439617767E0,1.019904099E1,1.121137568E1
5.924927167E0,-1.341510315E0,4.451143799E0,1.030247589E1,1.130280233E1
5.934969167E0,-1.274599457E0,4.515509949E0,1.038091278E1,1.139200527E1
5.945010167E0,-1.501976624E0,4.924758911E0,1.030382309E1,1.151859168E1
5.955052167E0,-1.774859161E0,5.692662048E0,1.036908737E1,1.196137530E1
5.965094167E0,-1.650168457E0,5.902974701E0,1.070154602E1,1.233252827E1
5.975136167E0,-1.138682098E0,5.338348846E0,1.103460342E1,1.231085042E1
5.985177167E0,-6.195616150E-1,4.591851196E0,1.118983063E1,1.211120405E1
5.995219167E0,-3.237767029E-1,4.042493591E0,1.125928619E1,1.196737696E1
6.005261167E0,-2.161505127E-1,3.484753418E0,1.141481277E1,1.193684121E1
6.015303167E0,-5.607339478E-1,3.165018311E0,1.175236084E1,1.218399560E1
6.025344167E0,-1.161434784E0,3.042123871E0,1.160746216E1,1.205556412E1
6.035386167E0,-1.728455658E0,2.982697449E0,1.106543930E1,1.158999525E1
6.045428167E0,-1.926493835E0,2.897674255E0,1.032747391E1,1.089791778E1
6.055469167E0,-1.986069946E0,3.079246674E0,9.876461792E0,1.053426464E1
6.065511167E0,-1.870959320E0,3.442391510E0,9.418264618E0,1.020069882E1
6.075553167E0,-1.574276276E0,3.490591278E0,8.976682892E0,9.759272975E0
6.085595167E0,-1.239272919E0,3.393293610E0,8.915011139E0,9.619130028E0
6.095636167E0,-9.437873840E-1,3.367247772E0,9.008566589E0,9.663506826E0
6.105678167E0,-6.822811890E-1,3.343896332E0,9.254804535E0,9.864003106E0
6.115720167E0,-4.143383789E-1,3.197800140E0,9.428892517E0,9.965019625E0
6.125761167E0,-1.571731567E-1,2.994822235E0,9.493558044E0,9.955968459E0
6.135803167E0,4.745132446E-2,2.855162659E0,9.424551544E0,9.847658465E0
6.145845167E0,1.887574768E-1,2.726130981E0,9.303603058E0,9.696620513E0
6.155887167E0,3.335064697E-1,2.574346619E0,9.128167877E0,9.490096726E0
6.165928167E0,4.261637878E-1,2.451152802E0,8.859027557E0,9.201746296E0
6.175970167E0,3.721261597E-1,2.379002838E0,8.522677002E0,8.856305983E0
6.186012167E0,1.791773987E-1,2.354453888E0,8.274493103E0,8.604812244E0
6.196053167E0,-5.029541016E-2,2.369572449E0,8.020920410E0,8.363765148E0
6.206095167E0,-2.634521484E-1,2.371069336E0,7.753875732E0,8.112580706E0
6.216137167E0,-4.007167053E-1,2.378104706E0,7.502548370E0,7.880621036E0
6.226179167E0,-5.608836365E-1,2.522704010E0,7.245532837E0,7.692618024E0
6.236220167E0,-6.429130554E-1,2.727627869E0,6.923253021E0,7.468917149E0
6.246262167E0,-6.391708374E-1,2.899620209E0,6.645281067E0,7.278468051E0
6.256304167E0,-5.450166321E-1,3.006198578E0,6.455924835E0,7.142355249E0
6.266346167E0,-4.299060059E-1,3.109483795E0,6.293512573E0,7.032923230E0
6.276387167E0,-3.784130859E-1,3.190615082E0,6.186185760E0,6.970804496E0
6.286429167E0,-3.553610229E-1,3.259771271E0,6.274352417E0,7.079540130E0
6.296471167E0,-3.929328918E-1,3.262166290E0,6.521338806E0,7.302327368E0
6.306512167E0,-4.282594299E-1,3.178041229E0,6.835086365E0,7.549950848E0
6.316554167E0,-5.188211060E-1,3.045566711E0,7.120093689E0,7.761468036E0
6.326596167E0,-6.364764404E-1,3.053799591E0,7.541916504E0,8.161574527E0
6.336638167E0,-8.405021667E-1,3.164868622E0,7.968080292E0,8.614704918E0
6.346679167E0,-1.003962250E0,3.256029053E0,8.400830383E0,9.065517995E0
6.356721167E0,-9.330097961E-1,3.307072906E0,8.631351013E0,9.290180773E0
6.366763167E0,-8.831634521E-1,3.353476410E0,8.716673584E0,9.381160913E0
6.376805167E0,-9.562115479E-1,3.535946960E0,8.622669067E0,9.368440814E0
6.386846167E0,-1.022523651E0,3.855981445E0,8.483009491E0,9.374198502E0
6.396888167E0,-1.049168243E0,4.134252777E0,8.285869446E0,9.319250641E0
6.406930167E0,-9.910890198E-1,4.286336517E0,8.188122711E0,9.295175723E0
6.416971167E0,-8.864566040E-1,4.379891968E0,8.256680145E0,9.388398478E0
6.427013167E0,-8.452922058E-1,4.494553528E0,8.465346222E0,9.621726300E0
6.437055167E0,-8.057743835E-1,4.575235748E0,8.769663391E0,9.924164978E0
6.447097167E0,-6.897656250E-1,4.543352051E0,9.132808228E0,1.022379629E1
6.457138167E0,-5.525010681E-1,4.438270569E0,9.471553802E0,1.047443719E1
6.467180167E0,-4.605921936E-1,4.420607300E0,9.884095917E0,1.083740126E1
6.477222167E0,-7.556286621E-1,4.721331940E0,1.027852570E1,1.133622690E1
6.487264167E0,-1.253493347E0,5.387596436E0,1.059721298E1,1.195401037E1
6.497305167E0,-1.570683746E0,5.928721161E0,1.099882782E1,1.259329168E1
6.507347167E0,-1.263372803E0,5.930816803E0,1.140852585E1,1.291995204E1
6.517389167E0,-4.730163574E-1,5.256469116E0,1.157363251E1,1.272018795E1
6.527430167E0,3.237767029E-1,4.542753296E0,1.148786087E1,1.235768531E1
6.537472167E0,9.222322083E-1,4.184548187E0,1.117516113E1,1.196850793E1
6.547514167E0,1.237776031E0,3.643423462E0,1.120599701E1,1.184824852E1
6.557556167E0,9.614506531E-1,2.955454102E0,1.166015259E1,1.206723890E1
6.567597167E0,2.185455322E-1,2.784210205E0,1.167527115E1,1.200464681E1
6.577639167E0,-4.278103638E-1,3.001857605E0,1.123294098E1,1.163499608E1
6.587681167E0,-8.434959412E-1,3.309318237E0,1.060020676E1,1.113676146E1
6.597722167E0,-1.006057892E0,3.506907349E0,9.971364441E0,1.061784632E1
6.607764167E0,-9.122030640E-1,3.645369415E0,9.496402130E0,1.021285886E1
6.617806167E0,-5.899232483E-1,3.715124359E0,9.067843323E0,9.817124883E0
6.627848167E0,-2.260299683E-1,3.682342529E0,8.913963318E0,9.647252359E0
6.637889167E0,7.409591675E-2,3.537144470E0,8.864865417E0,9.544774491E0
6.647931167E0,2.483335876E-1,3.268752594E0,8.892707520E0,9.477692764E0
6.657973917E0,7.170089722E-2,3.110531616E0,9.047485657E0,9.567525525E0
6.668015917E0,-2.421963501E-1,3.113824768E0,9.086704102E0,9.608473093E0
6.678056917E0,-3.881428528E-1,3.120710449E0,8.845705261E0,9.388077021E0
6.688098917E0,-3.522175598E-1,3.042273560E0,8.577163696E0,9.107536588E0
6.698140917E0,-3.370989990E-1,2.999612274E0,8.259075165E0,8.793385702E0
6.708182917E0,-4.144880676E-1,3.076252899E0,7.882608032E0,8.471755523E0
6.718223917E0,-4.275109863E-1,3.205434265E0,7.503745880E0,8.170910396E0
6.728265917E0,-3.993695068E-1,3.245700531E0,7.128925323E0,7.843190946E0
6.738307917E0,-4.746629333E-1,3.247796173E0,6.864275665E0,7.608663831E0
6.748348917E0,-5.673202515E-1,3.291804657E0,6.653364258E0,7.444802624E0
6.758390917E0,-6.948550415E-1,3.322790222E0,6.525380402E0,7.355565769E0
6.768432917E0,-8.571176147E-1,3.311563568E0,6.491999817E0,7.338062789E0
6.778474917E0,-9.659413147E-1,3.279679871E0,6.535559235E0,7.375830610E0
6.788515917E0,-9.854008484E-1,3.235372009E0,6.599326630E0,7.415507996E0
6.798557917E0,-9.038204956E-1,3.191513214E0,6.738387451E0,7.510560134E0
6.808599917E0,-8.958869934E-1,3.117417297E0,6.962172089E0,7.680673428E0
6.818641917E0,-9.617500305E-1,3.087030487E0,7.184459839E0,7.878526736E0
6.828682917E0,-9.601034546E-1,3.140020294E0,7.379953308E0,8.077452378E0
6.838724917E0,-8.764274597E-1,3.277284851E0,7.599546661E0,8.322369287E0
6.848766917E0,-8.381071472E-1,3.454366608E0,7.753276978E0,8.529265862E0
6.858807917E0,-9.415420532E-1,3.707190857E0,7.772586823E0,8.662728866E0
6.868849917E0,-1.064436493E0,4.025878143E0,7.857610016E0,8.892848533E0
6.878891917E0,-1.087937622E0,4.297413483E0,7.825277252E0,8.993683060E0
6.888933917E0,-1.046024780E0,4.449796600E0,7.855963440E0,9.089060413E0
6.898974917E0,-9.186396790E-1,4.460125122E0,8.029452667E0,9.230857225E0
6.909016917E0,-8.400531006E-1,4.432283020E0,8.292904816E0,9.440502755E0
6.919058917E0,-8.167016602E-1,4.424050140E0,8.654253387E0,9.753733795E0
6.929100917E0,-8.517288208E-1,4.417763214E0,9.044641571E0,1.010186195E1
6.939141917E0,-8.940907288E-1,4.421655121E0,9.425150299E0,1.044910955E1
6.949183917E0,-9.099577332E-1,4.405189362E0,9.827812958E0,1.080831272E1
6.959225917E0,-9.304650879E-1,4.338877258E0,1.025113266E1,1.117037788E1
6.969266917E0,-9.669891357E-1,4.265529785E0,1.066756668E1,1.152938815E1
6.979308917E0,-9.892927551E-1,4.256847839E0,1.102068237E1,1.185558491E1
6.989350917E0,-9.915380859E-1,4.303999786E0,1.125569366E1,1.209124484E1
6.999392917E0,-9.035211182E-1,4.385430450E0,1.129835495E1,1.215323723E1
7.009433917E0,-9.035211182E-1,4.562661896E0,1.116183884E1,1.209218261E1
7.019475917E0,-1.178499298E0,5.099445648E0,1.091769653E1,1.210740699E1
7.029517917E0,-1.478176117E0,5.680836639E0,1.085303101E1,1.233876783E1
7.039559917E0,-1.559157715E0,5.805976410E0,1.103041214E1,1.256225803E1
7.049600917E0,-1.261127472E0,5.444478149E0,1.113968491E1,1.246295971E1
7.059642917E0,-8.240364075E-1,4.749024353E0,1.117905304E1,1.217388579E1
7.069684917E0,-4.230203247E-1,3.991898804E0,1.125569366E1,1.195009800E1
7.079726917E0,-4.138893127E-1,3.345842285E0,1.127874573E1,1.177183376E1
7.089767917E0,-8.611592102E-1,3.115171967E0,1.125240051E1,1.170736558E1
7.099809917E0,-1.538350983E0,3.112477570E0,1.083566711E1,1.137830050E1
7.109851917E0,-2.102378082E0,3.091670837E0,1.019993912E1,1.086357124E1
7.119892917E0,-2.398013306E0,3.176694031E0,9.463470612E0,1.026640778E1
7.129934917E0,-2.505040741E0,3.408711548E0,8.987610168E0,9.933361972E0
7.139976917E0,-2.289039917E0,3.545077972E0,8.508456573E0,9.497426748E0
7.150018917E0,-1.868564301E0,3.544928284E0,8.290060730E0,9.207776930E0
7.160059917E0,-1.418749695E0,3.482957153E0,8.169112244E0,8.993232793E0
7.170101917E0,-1.101409607E0,3.356919250E0,8.318800964E0,9.037945533E0
7.180143917E0,-8.396040344E-1,3.159779205E0,8.711284790E0,9.304602208E0
7.190185917E0,-5.911207581E-1,2.835703125E0,8.938362579E0,9.396007746E0
7.200226917E0,-4.146377563E-1,2.533481598E0,9.226812744E0,9.577292253E0
7.210268917E0,-2.990780640E-1,2.365530853E0,9.362730103E0,9.661568138E0
7.220310917E0,-2.448907471E-1,2.256856842E0,9.331445160E0,9.603605732E0
7.230352917E0,-2.043251038E-1,2.162702637E0,9.211843872E0,9.464517894E0
7.240393917E0,-1.495390320E-1,2.109413452E0,8.925788727E0,9.172878034E0
7.250435917E0,-1.856140137E-1,2.145638123E0,8.531658325E0,8.799284590E0
7.260477917E0,-1.848655701E-1,2.211052094E0,8.156239014E0,8.452642278E0
7.270518917E0,-1.661544800E-1,2.234553223E0,7.881410522E0,8.193745617E0
7.280560917E0,-2.354603577E-1,2.309098206E0,7.571105804E0,7.918902652E0
7.290602917E0,-2.631527710E-1,2.443668365E0,7.229815521E0,7.636163758E0
7.300644917E0,-4.070036316E-1,2.611918488E0,7.006180573E0,7.488279933E0
7.310685917E0,-5.245092773E-1,2.784659271E0,6.739285583E0,7.310773380E0
7.320727917E0,-5.536985779E-1,2.938239899E0,6.484365692E0,7.140506582E0
7.330769917E0,-5.554948425E-1,3.085832977E0,6.365662537E0,7.095956540E0
7.340811917E0,-5.525010681E-1,3.254382477E0,6.284980316E0,7.099101373E0
7.350852917E0,-5.284011841E-1,3.392694855E0,6.319408722E0,7.191975583E0
7.360894917E0,-5.444178772E-1,3.484903107E0,6.497987366E0,7.393563437E0
7.370936917E0,-6.162684631E-1,3.517684937E0,6.806046753E0,7.686102168E0
7.380978917E0,-6.996450806E-1,3.453767853E0,7.188501434E0,8.005783440E0
7.391019917E0,-7.436535645E-1,3.349883881E0,7.618557129E0,8.355666063E0
7.401061917E0,-6.927593994E-1,3.248544617E0,7.955057373E0,8.620666768E0
7.411103917E0,-6.942562866E-1,3.214265900E0,8.267906799E0,8.897852545E0
7.421145917E0,-7.402107239E-1,3.301534424E0,8.516689453E0,9.164171578E0
7.431186917E0,-8.437953186E-1,3.447181549E0,8.759634247E0,9.451256176E0
7.441228917E0,-8.957373047E-1,3.572021942E0,8.972192230E0,9.698552443E0
7.451270917E0,-8.696914673E-1,3.623215485E0,9.042096863E0,9.779753032E0
7.461311917E0,-8.752299500E-1,3.656147003E0,9.046737213E0,9.796779704E0
7.471353917E0,-9.330097961E-1,3.743714905E0,9.057514801E0,9.845023257E0
7.481395917E0,-9.753717041E-1,3.879931641E0,9.047785034E0,9.892807161E0
7.491437917E0,-1.036594391E0,4.030518494E0,9.080716553E0,9.988944908E0
7.501478917E0,-1.151705017E0,4.160897369E0,9.201964417E0,1.016443016E1
7.511520917E0,-1.209933929E0,4.227658539E0,9.393416290E0,1.037175522E1
7.521562917E0,-1.155297546E0,4.264332275E0,9.535919952E0,1.050966277E1
7.531604917E0,-1.133143616E0,4.293222198E0,9.717043304E0,1.068347799E1
7.541645917E0,-1.032403107E0,4.288731537E0,9.963430939E0,1.089628517E1
7.551687917E0,-9.577084351E-1,4.294719086E0,1.029603928E1,1.119688538E1
7.561729917E0,-1.149459686E0,4.668491821E0,1.053524185E1,1.158047470E1
7.571771917E0,-1.451980591E0,5.371879120E0,1.075752960E1,1.211155548E1
7.581812917E0,-1.541793823E0,5.721851349E0,1.093790451E1,1.244003481E1
7.591854917E0,-1.091530151E0,5.464686127E0,1.111274094E1,1.243170317E1
7.601896917E0,-7.095245361E-2,4.587809601E0,1.145088776E1,1.233595807E1
7.611937917E0,9.238787842E-1,3.707041168E0,1.166928360E1,1.227875751E1
7.621979917E0,1.540147247E0,3.083887024E0,1.169892197E1,1.219619563E1
7.632021917E0,1.689536591E0,2.539319458E0,1.176957504E1,1.215835408E1
7.642063917E0,1.156794434E0,2.324366455E0,1.227971420E1,1.255118455E1
7.652104958E0,4.501139832E-1,2.396815796E0,1.237132370E1,1.260940041E1
7.662146958E0,-1.381626892E-1,2.624492340E0,1.188408691E1,1.217121895E1
7.672188958E0,-4.718188477E-1,2.927612000E0,1.102382584E1,1.141570239E1
7.682230958E0,-5.809419250E-1,3.266656952E0,1.047791107E1,1.099068522E1
7.692271958E0,-2.758763123E-1,3.481609955E0,9.798623657E0,1.040243919E1
7.702313958E0,2.598596191E-1,3.569626923E0,9.119934998E0,9.797090269E0
7.712355958E0,6.809339905E-1,3.567980347E0,8.647966461E0,9.379844283E0
7.722397958E0,8.849597168E-1,3.525468750E0,8.422984314E0,9.173807735E0
7.732438958E0,8.247848511E-1,3.550766144E0,8.449329529E0,9.202139955E0
7.742480958E0,6.912625122E-1,3.604055328E0,8.420738983E0,9.185635726E0
7.752522958E0,4.799020386E-1,3.623814240E0,8.244405670E0,9.018456656E0
7.762564958E0,2.544708252E-1,3.634292450E0,8.017926636E0,8.806814665E0
7.772605958E0,6.900650024E-2,3.636388092E0,7.677235107E0,8.495176228E0
7.782647958E0,-9.415420532E-2,3.604654083E0,7.452402649E0,8.278931170E0
7.792689958E0,-1.594184875E-1,3.519181824E0,7.250622253E0,8.061115185E0
7.802731958E0,-1.517843628E-1,3.424578552E0,7.109615479E0,7.892870771E0
7.812772958E0,-2.085163879E-1,3.357518005E0,7.046895905E0,7.808658536E0
7.822814958E0,-3.248245239E-1,3.328179016E0,6.985523529E0,7.744664325E0
7.832856958E0,-5.849835205E-1,3.327879639E0,6.973997498E0,7.749427702E0
7.842897958E0,-8.382568359E-1,3.332519989E0,6.987918549E0,7.787128459E0
7.852939958E0,-1.027762756E0,3.322939911E0,6.929839325E0,7.753766762E0
7.862981958E0,-1.070274353E0,3.296594696E0,6.847360840E0,7.674592774E0
7.873023958E0,-1.048719177E0,3.307971039E0,6.807693329E0,7.641149964E0
7.883064958E0,-9.520202637E-1,3.369642792E0,6.823710022E0,7.669671022E0
7.893106958E0,-7.696994019E-1,3.460354156E0,7.015012207E0,7.859827245E0
7.903148958E0,-5.695655823E-1,3.518732758E0,7.286996613E0,8.112102366E0
7.913190958E0,-4.168830872E-1,3.477119293E0,7.556436310E0,8.328498051E0
7.923231958E0,-3.942800903E-1,3.373983765E0,7.814649353E0,8.521030909E0
7.933273958E0,-4.326004028E-1,3.295846252E0,8.030350800E0,8.691161004E0
7.943315958E0,-4.659809875E-1,3.310366058E0,8.168064423E0,8.825697600E0
7.953357958E0,-5.712121582E-1,3.402125244E0,8.223299561E0,8.917589089E0
7.963398958E0,-6.897656250E-1,3.572321320E0,8.262667694E0,9.028229818E0
7.973440958E0,-7.217990112E-1,3.774550781E0,8.251890106E0,9.102852176E0
7.983482958E0,-6.629713440E-1,3.916156311E0,8.313262482E0,9.213367698E0
7.993524958E0,-5.975573730E-1,4.016747131E0,8.346044312E0,9.281583269E0
8.003565958E0,-6.107299805E-1,4.093238068E0,8.339907074E0,9.310297471E0
8.013607958E0,-5.869294739E-1,4.164489899E0,8.400381317E0,9.394353016E0
8.023649958E0,-5.977070618E-1,4.250111847E0,8.454269257E0,9.481317055E0
8.033691958E0,-6.973997498E-1,4.363276520E0,8.593030701E0,9.662542368E0
8.043732958E0,-8.065228271E-1,4.456981659E0,8.956474915E0,1.003661335E1
8.053774958E0,-8.255332947E-1,4.459825745E0,9.334738312E0,1.037828937E1
8.063816958E0,-7.554789734E-1,4.398303680E0,9.735305328E0,1.070943479E1
8.073858958E0,-6.294410706E-1,4.319866791E0,1.013153137E1,1.103201582E1
8.083899958E0,-5.519023132E-1,4.255949707E0,1.047895889E1,1.132370450E1
8.093941958E0,-4.234693909E-1,4.195475464E0,1.091799591E1,1.170401535E1
8.103983958E0,-2.676434326E-1,4.110751648E0,1.116977234E1,1.190519745E1
8.114025958E0,-2.061213684E-1,4.055815887E0,1.128069168E1,1.198941756E1
8.124066958E0,-3.082090759E-1,4.137545929E0,1.108744354E1,1.183831422E1
8.134108958E0,-6.842271423E-1,4.471052399E0,1.070498886E1,1.162132793E1
8.144150958E0,-1.221310272E0,5.033732300E0,1.045650558E1,1.166912887E1
8.154192958E0,-1.610500946E0,5.533093872E0,1.033510803E1,1.183314409E1
8.164233958E0,-1.616189117E0,5.628146210E0,1.033660492E1,1.187996205E1
8.174275958E0,-1.308578796E0,5.232219543E0,1.048479675E1,1.179065150E1
8.184317958E0,-8.641529846E-1,4.649481354E0,1.065678909E1,1.165897041E1
8.194359958E0,-4.143383789E-1,4.083957367E0,1.093880264E1,1.168365471E1
8.204400958E0,-8.637039185E-2,3.418890381E0,1.125359802E1,1.176179152E1
8.214442958E0,-7.529342651E-2,2.805765381E0,1.148052612E1,1.181864918E1
8.224484958E0,-3.626957703E-1,2.530338135E0,1.152423523E1,1.180432789E1
8.234526958E0,-7.059320068E-1,2.537373505E0,1.118833374E1,1.149414704E1
8.244567958E0,-7.905061340E-1,2.646197205E0,1.060574524E1,1.095942935E1
8.254609958E0,-8.092172241E-1,2.810405731E0,1.010758118E1,1.052218657E1
8.264651958E0,-7.357200623E-1,3.094514923E0,9.687854004E0,1.019665738E1
8.274693958E0,-5.312452698E-1,3.227588196E0,9.213340759E0,9.776768129E0
8.284734958E0,-3.216810608E-1,3.184328156E0,9.072783051E0,9.620749284E0
8.294776958E0,-1.555265808E-1,3.117267609E0,8.995543671E0,9.521625481E0
8.304818958E0,-2.380050659E-2,3.029400330E0,8.942853241E0,9.442057875E0
8.314860958E0,7.843688965E-2,2.908900909E0,9.016949158E0,9.474873559E0
8.324901958E0,2.393522644E-1,2.743794250E0,9.217532043E0,9.620217948E0
8.334943958E0,5.144801331E-1,2.559826813E0,9.382189636E0,9.738731205E0
8.344985958E0,8.318202209E-1,2.377505951E0,9.398206329E0,9.729889087E0
8.355027958E0,1.107846222E0,2.316882019E0,9.505682831E0,9.846485242E0
8.365068958E0,1.370998993E0,2.279010773E0,9.486073608E0,9.851858751E0
8.375110958E0,1.530567169E0,2.191143494E0,9.375154266E0,9.748705719E0
8.385152958E0,1.669478302E0,2.110760651E0,9.181756439E0,9.568025901E0
8.395194958E0,1.702260132E0,2.093396759E0,8.913813629E0,9.313220333E0
8.405235958E0,1.599274292E0,2.152673492E0,8.609496460E0,9.017489158E0
8.415277958E0,1.403331757E0,2.238594818E0,8.368048553E0,8.775242639E0
8.425319958E0,1.252595215E0,2.346670074E0,8.139623566E0,8.563254463E0
8.435361958E0,1.114282837E0,2.460283813E0,7.864046631E0,8.314917444E0
8.445402958E0,1.006656647E0,2.586471405E0,7.620353394E0,8.110054117E0
8.455444958E0,8.869056702E-1,2.743345184E0,7.374265137E0,7.917848873E0
8.465486958E0,7.945477295E-1,2.887645111E0,7.169790344E0,7.770179790E0
8.475528958E0,8.321195984E-1,2.926414490E0,6.979236603E0,7.613545058E0
8.485569958E0,8.568182373E-1,2.899620209E0,6.885830841E0,7.520412304E0
8.495611958E0,7.964936829E-1,2.842139740E0,6.862180023E0,7.470051885E0
8.505653958E0,7.018904114E-1,2.862048340E0,6.968159637E0,7.565660552E0
8.515695958E0,5.914201355E-1,2.927312622E0,7.113357697E0,7.714842492E0
8.525736958E0,4.427792358E-1,3.012934570E0,7.239844666E0,7.854245919E0
8.535778958E0,3.576063538E-1,3.125949554E0,7.409891052E0,8.050212937E0
8.545820958E0,2.188449097E-1,3.262914734E0,7.585026855E0,8.259972037E0
8.555862958E0,-4.715194702E-2,3.372337189E0,7.831115112E0,8.526502526E0
8.565903958E0,-2.113604736E-1,3.507057037E0,8.118218079E0,8.845879667E0
8.575945958E0,-2.020797729E-1,3.681145020E0,8.223000183E0,9.011625653E0
8.585987958E0,-2.333647156E-1,3.837719421E0,8.299790497E0,9.147079957E0
8.596029958E0,-2.966830444E-1,4.029919739E0,8.520581360E0,9.430195154E0
8.606070958E0,-2.670446777E-1,4.345164185E0,8.552764435E0,9.596954940E0
8.616112958E0,-6.706054688E-2,4.411326599E0,8.471034393E0,9.551058746E0
8.626154958E0,-1.016386414E-1,4.380939789E0,8.564440155E0,9.620426135E0
8.636196958E0,-2.603086853E-1,4.469405823E0,8.666078796E0,9.754192469E0
8.646237958E0,-4.135899353E-1,4.489913177E0,8.817563782E0,9.903525030E0
8.656279708E0,-5.664221191E-1,4.331392822E0,9.188941498E0,1.017440139E1
8.666321708E0,-6.979985046E-1,4.145629120E0,9.675130463E0,1.054900906E1
8.676363708E0,-8.128097534E-1,3.955674133E0,1.010698242E1,1.088389228E1
8.686404708E0,-7.789801025E-1,3.767964478E0,1.053374496E1,1.121446161E1
8.696446708E0,-7.568261719E-1,3.582949219E0,1.086231171E1,1.146298943E1
8.706488708E0,-7.714956665E-1,3.428320770E0,1.101170105E1,1.155881261E1
8.716530708E0,-7.695497131E-1,3.325783997E0,1.100840790E1,1.152554079E1
8.726571708E0,-8.198451233E-1,3.342998199E0,1.091560089E1,1.144544127E1
8.736613708E0,-9.638456726E-1,3.579656067E0,1.056278458E1,1.119443407E1
8.746655708E0,-1.208886108E0,3.996539154E0,1.015233810E1,1.097741772E1
8.756697708E0,-1.480870514E0,4.481680298E0,9.994266815E0,1.105277363E1
8.766738708E0,-1.506018219E0,4.758903809E0,9.728719025E0,1.093449725E1
8.776780708E0,-1.237027588E0,4.727020111E0,9.464518433E0,1.065138796E1
8.786822708E0,-7.444020081E-1,4.432881775E0,9.370813293E0,1.039310911E1
8.796864708E0,-2.372566223E-1,4.019441528E0,9.458830261E0,1.028015909E1
8.806905708E0,1.713935852E-1,3.585194550E0,9.876910858E0,1.050887072E1
8.816947708E0,3.782633972E-1,3.153342590E0,1.019739441E1,1.068051990E1
8.826989708E0,5.316943359E-1,2.771187286E0,1.038480469E1,1.076133571E1
8.837031708E0,8.081694031E-1,2.640209656E0,1.055170761E1,1.090698759E1
8.847072708E0,1.164428558E0,2.594554596E0,1.057416092E1,1.094990806E1
8.857114708E0,1.473086700E0,2.585124207E0,1.020951920E1,1.063424345E1
8.867156708E0,1.628313904E0,2.580483856E0,9.664652252E0,1.013488067E1
8.877198708E0,1.610201569E0,2.656525726E0,9.211095428E0,9.720810512E0
8.887240708E0,1.617087250E0,2.684068451E0,8.698710938E0,9.245905396E0
8.897281708E0,1.554068298E0,2.592159576E0,8.408165131E0,8.934856485E0
8.907323708E0,1.432071991E0,2.477947083E0,8.219557343E0,8.703572533E0
8.917365708E0,1.272653503E0,2.425406342E0,8.025710449E0,8.480228244E0
8.927407708E0,1.079255676E0,2.427951050E0,7.862849121E0,8.299646704E0
8.937448708E0,9.357041931E-1,2.461780701E0,7.737709351E0,8.173619305E0
8.947490708E0,8.258326721E-1,2.514920197E0,7.655530243E0,8.100244842E0
8.957532708E0,7.077282715E-1,2.578088837E0,7.705526276E0,8.156136128E0
8.967574708E0,8.140072632E-1,2.613714752E0,7.834408264E0,8.298919537E0
8.977615708E0,1.032852173E0,2.609822845E0,8.122259674E0,8.593547644E0
8.987657708E0,1.191671906E0,2.511926422E0,8.383167114E0,8.832176807E0
8.997699708E0,1.399589539E0,2.353406067E0,8.617879028E0,9.042411732E0
9.007741708E0,1.495689697E0,2.207758942E0,8.883576508E0,9.275193733E0
9.017782708E0,1.503922577E0,2.085313568E0,9.106912079E0,9.462883462E0
9.027824708E0,1.578168182E0,1.944157104E0,9.365125122E0,9.694118331E0
9.037866708E0,1.552571411E0,1.739532623E0,9.716743927E0,9.992575458E0
9.047908708E0,1.356329498E0,1.606459351E0,1.008168503E1,1.029857827E1
9.057949708E0,1.086740112E0,1.658551025E0,1.035262161E1,1.054080499E1
9.067991708E0,8.512797546E-1,1.812281342E0,1.051608170E1,1.070499954E1
9.078033708E0,7.834707642E-1,1.977986755E0,1.049287994E1,1.070639003E1
9.088075708E0,8.075706482E-1,2.088756409E0,1.039483383E1,1.063332705E1
9.098116708E0,8.581654358E-1,2.163301392E0,1.022658371E1,1.048805679E1
9.108158708E0,7.843688965E-1,2.307002563E0,1.003917343E1,1.033065819E1
9.118200708E0,7.241940308E-1,2.448308716E0,9.861642609E0,1.018678887E1
9.128242708E0,6.255491638E-1,2.519111481E0,9.761351166E0,1.010055498E1
9.138284708E0,4.917274475E-1,2.522254944E0,9.670490112E0,1.000609539E1
9.148325708E0,3.737727356E-1,2.502496033E0,9.541009369E0,9.870818215E0
9.158367708E0,2.475851440E-1,2.472558289E0,9.556876373E0,9.874650825E0
9.168409708E0,1.772314453E-1,2.488125916E0,9.597292328E0,9.916158610E0
9.178451708E0,9.999206543E-2,2.493814087E0,9.533075867E0,9.854371750E0
9.188492708E0,1.137634277E-2,2.520608368E0,9.435628510E0,9.766508144E0
9.198534708E0,-1.347198486E-2,2.611319733E0,9.265432434E0,9.626391350E0
9.208576708E0,-3.293151855E-2,2.736160126E0,9.066196747E0,9.470141507E0
9.218618708E0,-6.062393188E-2,2.864293671E0,8.919352112E0,9.368174613E0
9.228659708E0,-9.639953613E-2,2.951113129E0,8.829239502E0,9.309878181E0
9.238701708E0,-1.528321838E-1,2.986140289E0,8.882079620E0,9.371858401E0
9.248743708E0,-1.767823792E-1,3.008743286E0,9.048383789E0,9.537139894E0
9.258785708E0,-1.719923401E-1,3.052901459E0,9.207053833E0,9.701527146E0
9.268826708E0,-1.471440125E-1,3.105142822E0,9.361083527E0,9.863744122E0
9.278868708E0,-5.553451538E-2,3.148402863E0,9.510173492E0,1.001793015E1
9.288910708E0,8.681945801E-3,3.178789673E0,9.585317230E0,1.009866751E1
9.298952708E0,-4.041595459E-3,3.198099518E0,9.674082642E0,1.018900053E1
9.308993708E0,-1.916015625E-2,3.225193176E0,9.724527740E0,1.024542229E1
9.319035708E0,-1.826202393E-2,3.207679596E0,9.763596497E0,1.027703062E1
9.329077708E0,-7.753875732E-2,3.165018311E0,9.797575836E0,1.029639963E1
9.339119708E0,-1.987866211E-1,3.173550568E0,9.740095367E0,1.024599420E1
9.349161708E0,-2.917433167E-1,3.257825317E0,9.697583771E0,1.023433784E1
9.359202708E0,-3.733236694E-1,3.372337189E0,9.546996918E0,1.013198790E1
9.369244708E0,-3.878434753E-1,3.485202484E0,9.300908661E0,9.940018151E0
9.379286708E0,-3.945794678E-1,3.591481476E0,9.044491882E0,9.739469470E0
9.389328708E0,-4.019142151E-1,3.710933075E0,8.825347595E0,9.582239796E0
9.399369708E0,-3.373983765E-1,3.741020508E0,8.627908173E0,9.410094130E0
9.409411708E0,-2.748284912E-1,3.730841675E0,8.521629181E0,9.306603795E0
9.419453708E0,-3.059637451E-1,3.707490234E0,8.493038635E0,9.272044160E0
9.429495708E0,-4.754113770E-1,3.746558990E0,8.519832916E0,9.319349396E0
9.439536708E0,-5.888754272E-1,3.825744324E0,8.569978638E0,9.403596533E0
9.449578708E0,-6.050418091E-1,3.892505493E0,8.659791870E0,9.513657017E0
9.459620708E0,-5.411247253E-1,3.969894562E0,8.658145294E0,9.540249406E0
9.469662708E0,-4.652325439E-1,4.066593475E0,8.655450897E0,9.574468865E0
9.479703708E0,-3.379971313E-1,4.109554138E0,8.832083588E0,9.747224106E0
9.489745708E0,-1.383123779E-1,4.027225342E0,9.023236084E0,9.882128500E0
9.499787708E0,6.017486572E-2,3.834875336E0,9.237889709E0,1.000242451E1
9.509829708E0,2.143542480E-1,3.641627197E0,9.468709717E0,1.014711092E1
9.519871708E0,2.327659607E-1,3.456162872E0,9.588011627E0,1.019456761E1
9.529912708E0,1.055305481E-1,3.373534698E0,9.574689331E0,1.015216966E1
9.539954708E0,-7.499404907E-2,3.371738434E0,9.512269135E0,1.009244808E1
9.549996708E0,-1.493893433E-1,3.379821625E0,9.404193878E0,9.994217022E0
9.560038708E0,-1.474433899E-1,3.362308044E0,9.248816986E0,9.842127340E0
9.570079708E0,-1.034349060E-1,3.403322754E0,9.061257019E0,9.679859674E0
9.580121708E0,-5.777984619E-2,3.485352173E0,8.864116974E0,9.524893071E0
9.590163708E0,-1.242416382E-2,3.592529297E0,8.627459106E0,9.345558931E0
9.600205708E0,-3.876937866E-2,3.673660583E0,8.411607971E0,9.178912452E0
9.610246708E0,-1.625619507E-1,3.782184906E0,8.273145905E0,9.098147735E0
9.620288708E0,-3.140469360E-1,3.964954834E0,8.115523682E0,9.037766148E0
9.630330708E0,-5.516029358E-1,4.128414917E0,8.087382202E0,9.096913015E0
9.640372708E0,-6.227050781E-1,4.187541962E0,8.063581696E0,9.107393648E0
9.650413708E0,-5.472619629E-1,4.123026123E0,8.089328156E0,9.095937009E0
9.660455542E0,-4.031117249E-1,4.008963318E0,8.212222595E0,9.147397767E0
9.670497542E0,-2.004331970E-1,3.908372498E0,8.419990540E0,9.285030411E0
9.680539542E0,-7.753875732E-2,3.810027008E0,8.801397400E0,9.590980881E0
9.690581542E0,-4.221221924E-2,3.668271790E0,9.215436401E0,9.918783588E0
9.700622542E0,-5.418731689E-2,3.474275208E0,9.630972290E0,1.023861083E1
9.710664542E0,-2.619552612E-2,3.300785980E0,1.002959335E1,1.055881703E1
9.720706542E0,-1.710942078E-1,3.207380219E0,1.028077103E1,1.077083163E1
9.730748542E0,-3.252735901E-1,3.122656403E0,1.048060547E1,1.094074389E1
9.740789542E0,-4.460723877E-1,3.043471069E0,1.044677582E1,1.089021679E1
9.750831542E0,-5.983058167E-1,3.040028229E0,1.014590149E1,1.060844279E1
9.760873542E0,-7.409591675E-1,3.134631500E0,9.654323730E0,1.017747031E1
9.770915542E0,-9.686357117E-1,3.341501312E0,9.151369629E0,9.790375491E0
9.780956542E0,-1.157991943E0,3.572770386E0,8.661887512E0,9.441076678E0
9.790998542E0,-1.227746887E0,3.738475800E0,8.238118744E0,9.129631108E0
9.801040542E0,-1.265618134E0,3.818409576E0,7.908055115E0,8.872394077E0
9.811082542E0,-1.273102570E0,3.914509735E0,7.695048065E0,8.726851743E0
9.821124542E0,-1.263821869E0,4.007616119E0,7.517517242E0,8.612276015E0
9.831165542E0,-1.261875916E0,4.020040283E0,7.542814636E0,8.639855748E0
9.841207542E0,-1.259031830E0,3.965104523E0,7.684869232E0,8.738674393E0
9.851249542E0,-1.227597198E0,3.885470123E0,7.746840363E0,8.753137070E0
9.861291542E0,-1.191821594E0,3.849245453E0,7.740852814E0,8.726851182E0
9.871332542E0,-1.162482605E0,3.886368256E0,7.774532776E0,8.769183765E0
9.881374542E0,-1.138532410E0,3.961212616E0,7.798932037E0,8.821043156E0
9.891416542E0,-1.137185211E0,4.033212891E0,7.851921844E0,8.900150172E0
9.901458542E0,-1.120869141E0,4.029620361E0,8.006699982E0,9.033351121E0
9.911499542E0,-1.082698517E0,3.970493317E0,8.210576019E0,9.184258915E0
9.921541542E0,-1.039887543E0,3.873045959E0,8.361761627E0,9.273667485E0
9.931583542E0,-1.039139099E0,3.750600586E0,8.533454590E0,9.379054433E0
9.941625542E0,-1.005159760E0,3.682941284E0,8.683592377E0,9.485735565E0
9.951667542E0,-1.088835754E0,3.629203033E0,8.696914673E0,9.486464188E0
9.961708542E0,-1.233435059E0,3.555107117E0,8.780141602E0,9.552540772E0
9.971750542E0,-1.408720551E0,3.525618439E0,8.879085846E0,9.656740880E0
9.981792542E0,-1.587598572E0,3.553460541E0,8.840316467E0,9.659127615E0
9.991834542E0,-1.704804840E0,3.584595795E0,8.810528412E0,9.663389543E0
1.000187554E1,-1.721420288E0,3.594924316E0,8.682843933E0,9.553980710E0
1.001191754E1,-1.735341339E0,3.659290466E0,8.574618988E0,9.482927136E0
1.002195954E1,-1.820214844E0,3.786825256E0,8.506959686E0,9.487970842E0
1.003200154E1,-1.922302551E0,3.939507751E0,8.383167114E0,9.460045417E0
1.004204254E1,-2.042652283E0,4.051025848E0,8.340206451E0,9.494328961E0
1.005208454E1,-2.129022675E0,4.183949432E0,8.242459717E0,9.485584462E0
1.006212654E1,-2.223476257E0,4.364923096E0,8.152945862E0,9.511410333E0
1.007216854E1,-2.301913147E0,4.561464386E0,8.153694305E0,9.622291427E0
1.008221054E1,-2.339934082E0,4.706961823E0,8.233029327E0,9.767986129E0
1.009225154E1,-2.314636688E0,4.802612915E0,8.399782562E0,9.948818066E0
1.010229354E1,-2.309397583E0,4.851561127E0,8.636290741E0,1.017135587E1
1.011233554E1,-2.329156494E0,4.872068481E0,8.849447479E0,1.036700255E1
1.012237754E1,-2.363584900E0,4.882995758E0,9.053323517E0,1.055428102E1
1.013241854E1,-2.384691010E0,4.897814941E0,9.169032898E0,1.066520073E1
1.014246054E1,-2.429597626E0,4.903054047E0,9.268426208E0,1.076320621E1
1.015250254E1,-2.431693268E0,4.953798523E0,9.393715668E0,1.089473019E1
1.016254454E1,-2.412533112E0,5.017116852E0,9.462123413E0,1.097832214E1
1.017258554E1,-2.350262604E0,5.040168915E0,9.520052948E0,1.102535465E1
1.018262754E1,-2.268083496E0,4.992268524E0,9.552984467E0,1.101482909E1
1.019266954E1,-2.222278748E0,4.916526031E0,9.549990692E0,1.096873162E1
1.020271154E1,-2.242636414E0,4.900808716E0,9.539811859E0,1.095697743E1
1.021275354E1,-2.341730347E0,4.953050079E0,9.470505981E0,1.094106437E1
1.022279454E1,-2.401007080E0,5.036426697E0,9.383387146E0,1.091688523E1
1.023283654E1,-2.512076111E0,5.189707947E0,9.397757263E0,1.102549031E1
1.024287854E1,-2.577340393E0,5.316943359E0,9.481882324E0,1.117222729E1
1.025292054E1,-2.348017273E0,5.246290283E0,9.566905518E0,1.116075392E1
1.026296154E1,-1.910477142E0,4.892126770E0,9.727371826E0,1.105461849E1
1.027300354E1,-1.456171875E0,4.486470337E0,9.884994049E0,1.095271473E1
1.028304554E1,-1.105002136E0,4.173920288E0,1.007030869E1,1.095690455E1
1.029308754E1,-7.713459778E-1,3.803590393E0,1.046892975E1,1.116515851E1
1.030312854E1,-4.309538269E-1,3.143762512E0,1.075154205E1,1.121002321E1
1.031317054E1,-2.421963501E-1,2.433339844E0,1.110375961E1,1.136984078E1
1.032321254E1,-1.426533508E-1,1.933828583E0,1.119956039E1,1.136618652E1
1.033325454E1,-2.152523804E-1,1.686393127E0,1.113354767E1,1.126259913E1
1.034329654E1,-3.329077148E-1,1.673519897E0,1.092877350E1,1.106117474E1
1.035333754E1,-3.965254211E-1,1.752854919E0,1.048404831E1,1.063696393E1
1.036337954E1,-5.183720398E-1,1.907034302E0,1.006521927E1,1.025739384E1
1.037342154E1,-5.776487732E-1,2.207309875E0,9.850116577E0,1.011091942E1
1.038346354E1,-4.620890808E-1,2.543959808E0,9.453591156E0,9.800798109E0
1.039350454E1,-3.388952637E-1,2.770438843E0,9.208401031E0,9.622101171E0
1.040354654E1,-9.669891357E-2,2.869981842E0,9.085356903E0,9.528371136E0
1.041358854E1,-1.526824951E-2,2.882106628E0,9.205407257E0,9.646050721E0
1.042363054E1,-1.573228455E-1,2.860551453E0,9.398805084E0,9.825733667E0
1.043367254E1,-4.174818420E-1,2.929258575E0,9.312135315E0,9.770911473E0
1.044371354E1,-4.906796265E-1,3.055745544E0,9.085955658E0,9.598590394E0
1.045375554E1,-5.177732849E-1,3.192261658E0,8.670270081E0,9.253767175E0
1.046379754E1,-6.243516541E-1,3.279530182E0,8.179440765E0,8.834499671E0
1.047383954E1,-7.235952759E-1,3.376528473E0,7.785160675E0,8.516646135E0
1.048388054E1,-7.963439941E-1,3.426075439E0,7.452402649E0,8.240780419E0
1.049392254E1,-8.913963318E-1,3.382066956E0,7.299271088E0,8.093968293E0
1.050396454E1,-1.035247192E0,3.307971039E0,7.289691010E0,8.071803030E0
1.051400654E1,-1.230141907E0,3.299438782E0,7.325765991E0,8.128123568E0
1.052404854E1,-1.411714325E0,3.298989716E0,7.443720703E0,8.263488875E0
1.053408954E1,-1.602717133E0,3.286715240E0,7.555089111E0,8.393483827E0
1.054413154E1,-1.702260132E0,3.294199677E0,7.537126465E0,8.399864071E0
1.055417354E1,-1.632954254E0,3.397335205E0,7.478897552E0,8.375102071E0
1.056421554E1,-1.457369385E0,3.480412445E0,7.446415100E0,8.347831704E0
1.057425654E1,-1.301992493E0,3.591631165E0,7.394622803E0,8.323187206E0
1.058429854E1,-1.154998169E0,3.762575684E0,7.290289764E0,8.284885117E0
1.059434054E1,-1.044228516E0,3.913461914E0,7.306156769E0,8.353773044E0
1.060438254E1,-1.035546570E0,3.984564056E0,7.499853973E0,8.555519683E0
1.061442454E1,-1.122366028E0,4.000431061E0,7.640711060E0,8.697334055E0
1.062446554E1,-1.205143890E0,3.982618103E0,7.756121063E0,8.801763045E0
1.063450754E1,-1.306034088E0,3.988156586E0,7.919281769E0,8.962485243E0
1.064454954E1,-1.360221405E0,4.029919739E0,8.043224030E0,9.098566270E0
1.065459217E1,-1.397643585E0,4.042493591E0,8.131839752E0,9.188143435E0
1.066463317E1,-1.411414948E0,3.999233551E0,8.236621857E0,9.264334880E0
1.067467517E1,-1.418899384E0,3.946243744E0,8.435408478E0,9.420309514E0
1.068471717E1,-1.422940979E0,3.919299774E0,8.607400818E0,9.564152894E0
1.069475917E1,-1.389111328E0,3.929628296E0,8.758586426E0,9.699713656E0
1.070480017E1,-1.382674713E0,3.990701294E0,8.928034058E0,9.876602569E0
1.071484217E1,-1.380429382E0,4.076472931E0,9.017697601E0,9.992101224E0
1.072488417E1,-1.343306580E0,4.164639587E0,9.102571106E0,1.009977704E1
1.073492617E1,-1.334474945E0,4.261937256E0,9.198371887E0,1.022521285E1
1.074496817E1,-1.386267242E0,4.344266052E0,9.308842163E0,1.036575742E1
1.075500917E1,-1.386416931E0,4.356540527E0,9.454040222E0,1.050145103E1
1.076505117E1,-1.365610199E0,4.327500916E0,9.591454468E0,1.061075653E1
1.077509317E1,-1.416803741E0,4.272565155E0,9.773176575E0,1.075997798E1
1.078513517E1,-1.560504913E0,4.197571106E0,9.896370392E0,1.086245487E1
1.079517717E1,-1.840273132E0,4.162394257E0,9.859097900E0,1.085881865E1
1.080521817E1,-2.425705719E0,4.469705200E0,9.743687897E0,1.099098570E1
1.081526017E1,-2.803969116E0,4.987179108E0,9.630672913E0,1.120196675E1
1.082530217E1,-2.780018921E0,4.994513855E0,9.833800507E0,1.137441455E1
1.083534417E1,-2.359842682E0,4.514761505E0,9.995164948E0,1.121852269E1
1.084538517E1,-1.732796631E0,3.883374481E0,1.007958939E1,1.093989505E1
1.085542717E1,-1.435963898E0,3.360212402E0,1.038779846E1,1.101178353E1
1.086546917E1,-1.481469269E0,3.090922394E0,1.030621811E1,1.086124690E1
1.087551117E1,-1.895957336E0,3.087329865E0,1.028256729E1,1.090217639E1
1.088555217E1,-2.267634430E0,3.154989166E0,9.915680237E0,1.064973413E1
1.089559417E1,-2.481389923E0,3.172203369E0,9.190438385E0,1.003415806E1
1.090563617E1,-2.631976776E0,3.328179016E0,8.721164246E0,9.698596966E0
1.091567817E1,-2.672243042E0,3.682492218E0,8.468639374E0,9.613505326E0
1.092572017E1,-2.508932648E0,3.964056702E0,8.088879089E0,9.350853089E0
1.093576117E1,-2.238594818E0,4.071084137E0,7.983498230E0,9.236951705E0
1.094580317E1,-1.975292358E0,4.053869934E0,8.077053680E0,9.250645248E0
1.095584517E1,-1.788031769E0,3.972888336E0,8.326584778E0,9.397495060E0
1.096588717E1,-1.600621490E0,3.802991638E0,8.761430511E0,9.684389457E0
1.097592817E1,-1.341210938E0,3.465443573E0,9.058862000E0,9.791380223E0
1.098597017E1,-1.169817352E0,3.073558502E0,9.417815552E0,9.975494187E0
1.099601217E1,-1.139280853E0,2.792592773E0,9.704319763E0,1.016220239E1
1.100605417E1,-1.151405640E0,2.581082611E0,9.884245605E0,1.028037128E1
1.101609617E1,-1.096020813E0,2.390379181E0,9.949809265E0,1.029144687E1
1.102613717E1,-1.010398865E0,2.211501160E0,9.812993774E0,1.010972255E1
1.103617917E1,-9.066645813E-1,2.091600494E0,9.551487579E0,9.819763147E0
1.104622117E1,-8.931925964E-1,2.086960144E0,9.151519318E0,9.428865334E0
1.105626317E1,-1.032253418E0,2.215093689E0,8.685089264E0,9.022359043E0
1.106630517E1,-1.256187744E0,2.480192413E0,8.243357849E0,8.699558074E0
1.107634617E1,-1.385967865E0,2.750679932E0,7.703430634E0,8.296384184E0
1.108638817E1,-1.544039154E0,2.935545502E0,7.322173462E0,8.038389671E0
1.109643017E1,-1.655257874E0,3.078348541E0,7.069049835E0,7.885909836E0
1.110647217E1,-1.643582153E0,3.231330414E0,6.804400177E0,7.709910525E0
1.111651317E1,-1.577569427E0,3.319197693E0,6.669231262E0,7.614751752E0
1.112655517E1,-1.532213745E0,3.380719757E0,6.662794647E0,7.626911403E0
1.113659717E1,-1.512005768E0,3.456761627E0,6.770570526E0,7.750870121E0
1.114663917E1,-1.478176117E0,3.508553925E0,6.998247070E0,7.966832327E0
1.115668117E1,-1.428329773E0,3.493884430E0,7.280110931E0,8.200449349E0
1.116672217E1,-1.367256775E0,3.467389526E0,7.462581482E0,8.341600781E0
1.117676417E1,-1.338965607E0,3.508553925E0,7.742649078E0,8.605311981E0
1.118680617E1,-1.369801483E0,3.628005524E0,7.993677063E0,8.884686442E0
1.119684817E1,-1.309476929E0,3.692820740E0,8.200995941E0,9.088893732E0
1.120688917E1,-1.188827820E0,3.712879028E0,8.422684937E0,9.281185474E0
1.121693117E1,-1.082399139E0,3.777544556E0,8.641529846E0,9.493022114E0
1.122697317E1,-1.025816803E0,3.930227051E0,8.833730164E0,9.722848008E0
1.123701517E1,-1.069825287E0,4.148473206E0,9.023834839E0,9.989191723E0
1.124705717E1,-1.128503265E0,4.344116364E0,9.211394806E0,1.024669024E1
1.125709817E1,-1.165626068E0,4.421505432E0,9.479187927E0,1.052441914E1
1.126714017E1,-1.144070892E0,4.368216248E0,9.788594513E0,1.077992551E1
1.127718217E1,-1.081501007E0,4.294868774E0,1.005025040E1,1.098285369E1
1.128722417E1,-1.012494507E0,4.259242859E0,1.020757324E1,1.110679280E1
1.129726517E1,-1.023721161E0,4.233795776E0,1.035546570E1,1.123426462E1
1.130730717E1,-1.049916687E0,4.186943207E0,1.047371979E1,1.132835490E1
1.131734917E1,-1.054407349E0,4.126918030E0,1.049347870E1,1.132503079E1
1.132739117E1,-1.079405365E0,4.087998962E0,1.046818130E1,1.128980386E1
1.133743317E1,-1.172661438E0,4.085454254E0,1.043270508E1,1.126531875E1
1.134747417E1,-1.354982300E0,4.234244843E0,1.033286270E1,1.124868250E1
1.135751617E1,-1.630110168E0,4.661007385E0,1.027867538E1,1.140321957E1
1.136755817E1,-1.701811066E0,4.978646851E0,1.047656387E1,1.172354366E1
1.137760017E1,-1.518143005E0,4.844675446E0,1.071097641E1,1.185329718E1
1.138764117E1,-1.012644196E0,4.401596832E0,1.073747131E1,1.164872496E1
1.139768317E1,-3.309617615E-1,3.863166504E0,1.100062408E1,1.166393250E1
1.140772517E1,1.859133911E-1,3.348386993E0,1.129266678E1,1.178009262E1
1.141776717E1,4.562512207E-1,2.883753204E0,1.128593079E1,1.165746248E1
1.142780917E1,3.529660034E-1,2.624791718E0,1.118489090E1,1.149416813E1
1.143785017E1,-2.170486450E-2,2.615810394E0,1.086829926E1,1.117867898E1
1.144789217E1,-4.367916870E-1,2.759062500E0,1.026086243E1,1.063430819E1
1.145793417E1,-7.825726318E-1,3.005599823E0,9.531129913E0,1.002439463E1
1.146797617E1,-1.084794159E0,3.372037811E0,8.961714020E0,9.636375643E0
1.147801817E1,-1.154549103E0,3.738924866E0,8.487200775E0,9.345861104E0
1.148805917E1,-1.061442719E0,3.908821564E0,8.215066681E0,9.159304954E0
1.149810117E1,-8.577163696E-1,3.866309967E0,8.231682129E0,9.134802724E0
1.150814317E1,-6.159690857E-1,3.721710663E0,8.352480927E0,9.164850561E0
1.151818517E1,-4.451742554E-1,3.627257080E0,8.511899414E0,9.263239481E0
1.152822617E1,-3.062631226E-1,3.485202484E0,8.674910431E0,9.353849712E0
1.153826817E1,-2.700384521E-1,3.201841736E0,8.746012573E0,9.317588057E0
1.154831017E1,-2.683918762E-1,2.999163208E0,8.794811096E0,9.296005398E0
1.155835217E1,-2.914439392E-1,2.937341766E0,8.633746033E0,9.124389666E0
1.156839417E1,-3.827540588E-1,2.957699432E0,8.401728516E0,8.915353535E0
1.157843517E1,-5.138813782E-1,3.040776672E0,8.204438782E0,8.764885200E0
1.158847717E1,-7.090754700E-1,3.192710724E0,7.882158966E0,8.533734221E0
1.159851917E1,-9.449848938E-1,3.381019135E0,7.481741638E0,8.264426464E0
1.160856117E1,-1.096020813E0,3.583098907E0,7.132517853E0,8.056839971E0
1.161860217E1,-1.188528442E0,3.699706421E0,6.890171814E0,7.910429513E0
1.162864417E1,-1.224902802E0,3.775598602E0,6.701114960E0,7.788483381E0
1.163868617E1,-1.156944122E0,3.820954285E0,6.639742584E0,7.747541089E0
1.164872817E1,-1.059496765E0,3.838168488E0,6.787185974E0,7.868923953E0
1.165876921E1,-9.126521301E-1,3.871549072E0,6.937174072E0,7.996637433E0
1.166881021E1,-7.749385071E-1,3.885170746E0,7.006929016E0,8.049356226E0
1.167885221E1,-7.360194397E-1,3.927083588E0,7.169940033E0,8.208029617E0
1.168889421E1,-7.177574158E-1,3.946094055E0,7.294331360E0,8.324308019E0
1.169893621E1,-7.183561707E-1,3.952081604E0,7.306156769E0,8.337560274E0
1.170897821E1,-6.397695923E-1,3.868255920E0,7.386539612E0,8.362635735E0
1.171901921E1,-4.733157349E-1,3.697311401E0,7.553143158E0,8.422832715E0
1.172906121E1,-4.209246826E-1,3.573967896E0,7.649692383E0,8.453887724E0
1.173910321E1,-4.981640625E-1,3.539389801E0,7.708969116E0,8.497273235E0
1.174914521E1,-5.938151550E-1,3.555855560E0,7.844886475E0,8.633595369E0
1.175918621E1,-6.228547668E-1,3.603755951E0,8.046666870E0,8.838769865E0
1.176922821E1,-6.038442993E-1,3.670068054E0,8.159532166E0,8.967273422E0
1.177927021E1,-6.426136780E-1,3.774550781E0,8.190368042E0,9.041145647E0
1.178931221E1,-6.689588928E-1,3.917054443E0,8.223299561E0,9.133097896E0
1.179935421E1,-7.307803345E-1,4.044738922E0,8.239915009E0,9.208156829E0
1.180939521E1,-7.945477295E-1,4.124972076E0,8.234077148E0,9.243739893E0
1.181943721E1,-7.798782349E-1,4.149970093E0,8.273445282E0,9.288722122E0
1.182947921E1,-7.960446167E-1,4.165388031E0,8.498876495E0,9.498160146E0
1.183952121E1,-8.894503784E-1,4.216880951E0,8.842262421E0,9.836605697E0
1.184956321E1,-9.728269958E-1,4.268373871E0,9.217681732E0,1.020446296E1
1.185960421E1,-9.773176575E-1,4.298012238E0,9.543703766E0,1.051238986E1
1.186964621E1,-8.939410400E-1,4.286336517E0,9.835596771E0,1.076618666E1
1.187968821E1,-9.183403015E-1,4.337530060E0,1.002854553E1,1.096490955E1
1.188973021E1,-9.469308472E-1,4.474495239E0,1.019140686E1,1.117061142E1
1.189977121E1,-8.077203369E-1,4.509073334E0,1.050710037E1,1.146225600E1
1.190981321E1,-6.968009949E-1,4.467160492E0,1.064002396E1,1.156075968E1
1.191985521E1,-6.987469482E-1,4.454436951E0,1.065214874E1,1.156713139E1
1.192989721E1,-9.074130249E-1,4.664749603E0,1.066457291E1,1.167546156E1
1.193993921E1,-1.322350159E0,5.202431488E0,1.047057632E1,1.176634488E1
1.194998021E1,-1.687141571E0,5.670358429E0,1.045650558E1,1.201407177E1
1.196002221E1,-1.683249664E0,5.718857574E0,1.072325089E1,1.226893520E1
1.197006421E1,-1.123264160E0,5.274431763E0,1.087099365E1,1.213506719E1
1.198010621E1,-6.735992432E-1,4.546196136E0,1.111274094E1,1.202558299E1
1.199014821E1,-5.430706787E-1,3.961961060E0,1.135733231E1,1.204080804E1
1.200018921E1,-4.836442566E-1,3.461551666E0,1.141705811E1,1.194007820E1
1.201023121E1,-8.184979248E-1,3.077600098E0,1.164772842E1,1.207522831E1
1.202027321E1,-1.250200195E0,2.890638885E0,1.146855103E1,1.189312643E1
1.203031521E1,-1.554966431E0,2.831362152E0,1.085632416E1,1.132670766E1
1.204035621E1,-1.669029236E0,2.917882233E0,1.021715332E1,1.075592475E1
1.205039821E1,-1.697021027E0,3.196602631E0,9.713151398E0,1.036549366E1
1.206044021E1,-1.592987366E0,3.559747467E0,9.251661072E0,1.004005196E1
1.207048221E1,-1.341809692E0,3.740870819E0,8.869206390E0,9.718919165E0
1.208052421E1,-1.089584198E0,3.734434204E0,8.711434479E0,9.540559901E0
1.209056521E1,-8.816665649E-1,3.700005798E0,8.691825256E0,9.487634327E0
1.210060721E1,-7.421566772E-1,3.627556458E0,8.891360321E0,9.631523802E0
1.211064921E1,-6.057902527E-1,3.384461975E0,9.110803986E0,9.737983054E0
1.212069121E1,-4.929249573E-1,3.020119629E0,9.196875000E0,9.692605808E0
1.213073221E1,-4.541555786E-1,2.799478455E0,9.358838196E0,9.779120067E0
1.214077421E1,-3.719764709E-1,2.661315765E0,9.323960724E0,9.703463901E0
1.215081621E1,-2.775228882E-1,2.512076111E0,9.205107880E0,9.545761175E0
1.216085821E1,-1.008901978E-1,2.328707428E0,9.067394257E0,9.362195027E0
1.217090021E1,3.562591553E-2,2.179916840E0,8.829688568E0,9.094872558E0
1.218094121E1,1.496887207E-2,2.108665009E0,8.488248596E0,8.746259567E0
1.219098321E1,-1.299298096E-1,2.093247070E0,8.155939636E0,8.421277599E0
1.220102521E1,-3.441343689E-1,2.124532013E0,7.776029663E0,8.068376668E0
1.221106721E1,-4.855902100E-1,2.200873260E0,7.280260620E0,7.621143986E0
1.222110921E1,-6.110293579E-1,2.328408051E0,6.881340179E0,7.290245784E0
1.223115021E1,-6.773414612E-1,2.514321442E0,6.507268066E0,7.008932975E0
1.224119221E1,-7.408094788E-1,2.721490631E0,6.149062958E0,6.765078359E0
1.225123421E1,-7.265890503E-1,2.929408264E0,5.897286530E0,6.624753040E0
1.226127621E1,-7.235952759E-1,3.094065857E0,5.784570923E0,6.599855636E0
1.227131821E1,-7.098239136E-1,3.184028778E0,5.751639404E0,6.612355487E0
1.228135921E1,-7.379653931E-1,3.264710999E0,5.838009796E0,6.729434538E0
1.229140121E1,-7.854167175E-1,3.357368317E0,6.110443268E0,7.016146974E0
1.230144321E1,-9.000782776E-1,3.431613922E0,6.605613556E0,7.498016102E0
1.231148521E1,-1.004710693E0,3.452270966E0,6.979985046E0,7.851611914E0
1.232152621E1,-9.395960999E-1,3.497926025E0,7.348219299E0,8.192353397E0
1.233156821E1,-7.702981567E-1,3.586392059E0,7.654332733E0,8.487895902E0
1.234161021E1,-7.232958984E-1,3.783831482E0,7.880961456E0,8.772120104E0
1.235165221E1,-5.906716919E-1,4.030967560E0,8.085436249E0,9.053831888E0
1.236169421E1,-4.701722717E-1,4.210743713E0,8.306376801E0,9.324554688E0
1.237173521E1,-4.273612976E-1,4.341571655E0,8.524622955E0,9.576068016E0
1.238177721E1,-4.514611816E-1,4.416266327E0,8.771160278E0,9.830588899E0
1.239181921E1,-4.469705200E-1,4.466561737E0,9.038803711E0,1.009207258E1
1.240186121E1,-4.578977966E-1,4.484823761E0,9.186247101E0,1.023281244E1
1.241190321E1,-5.617817688E-1,4.487967224E0,9.272617493E0,1.031692220E1
1.242194421E1,-7.108717346E-1,4.542154541E0,9.340875549E0,1.041097798E1
1.243198621E1,-8.719367981E-1,4.646188202E0,9.430688782E0,1.054918146E1
1.244202821E1,-9.361532593E-1,4.682113495E0,9.583371277E0,1.070698719E1
1.245207021E1,-9.053173828E-1,4.626129913E0,9.804461517E0,1.087879328E1
1.246211121E1,-8.205935669E-1,4.524191895E0,9.985435181E0,1.099320708E1
1.247215321E1,-6.979985046E-1,4.455185394E0,1.020173538E1,1.115398062E1
1.248219521E1,-6.718029785E-1,4.444407806E0,1.065199905E1,1.156153813E1
1.249223721E1,-6.849755859E-1,4.662354584E0,1.108594666E1,1.204595181E1
1.250227921E1,-1.004710693E0,5.160818024E0,1.092278595E1,1.212232400E1
1.251232021E1,-1.327888641E0,5.526956635E0,1.094493988E1,1.233297397E1
1.252236221E1,-1.182840271E0,5.540129242E0,1.077429474E1,1.217282096E1
1.253240421E1,-7.324269104E-1,5.243595886E0,1.047162415E1,1.173399588E1
1.254244621E1,-1.776805115E-1,4.706662445E0,1.022852966E1,1.126086412E1
1.255248821E1,3.903881836E-1,4.158801727E0,1.021610550E1,1.103706693E1
1.256252921E1,8.364605713E-1,3.620221710E0,1.051578232E1,1.115290766E1
1.257257121E1,8.740324402E-1,3.128943329E0,1.077010345E1,1.124941543E1
1.258261321E1,6.385720825E-1,2.975961456E0,1.107876160E1,1.148925931E1
1.259265521E1,2.106120300E-1,3.101699982E0,1.097547638E1,1.140727759E1
1.260269721E1,-2.014810181E-1,3.417842560E0,1.047611481E1,1.102139845E1
1.261273821E1,-2.877017212E-1,3.626658325E0,9.964029694E0,1.060741772E1
1.262278021E1,-3.418890381E-1,3.811224518E0,9.548194427E0,1.028641518E1
1.263282221E1,-2.212399292E-1,4.027225342E0,9.193432159E0,1.003925724E1
1.264286421E1,1.242416382E-1,3.881129150E0,8.897347870E0,9.707800914E0
1.265290521E1,4.221221924E-1,3.561244354E0,8.855135651E0,9.553746694E0
1.266295179E1,5.737568665E-1,3.307072906E0,8.921597443E0,9.532094685E0
1.267299379E1,5.776487732E-1,3.108286285E0,8.748407593E0,9.302137235E0
1.268303579E1,3.842509460E-1,3.122207336E0,8.673114166E0,9.225981616E0
1.269307779E1,1.962419128E-1,3.168311462E0,8.448281708E0,9.024974915E0
1.270311879E1,1.242416382E-2,3.178789673E0,8.126900024E0,8.726474784E0
1.271316079E1,-1.763333130E-1,3.179538116E0,7.616012421E0,8.254950107E0
1.272320279E1,-4.089495850E-1,3.297642517E0,7.137756958E0,7.873325874E0
1.273324479E1,-5.477110291E-1,3.581003265E0,6.787934418E0,7.694129283E0
1.274328679E1,-5.439688110E-1,3.648213501E0,6.453978882E0,7.433653693E0
1.275332779E1,-5.107379150E-1,3.582649841E0,6.335126038E0,7.295893024E0
1.276336979E1,-5.504054260E-1,3.549568634E0,6.374344482E0,7.316737743E0
1.277341179E1,-5.948629761E-1,3.576213226E0,6.814878387E0,7.719179389E0
1.278345379E1,-5.182223511E-1,3.582649841E0,7.375462646E0,8.215922562E0
1.279349579E1,-5.361849976E-1,3.534450073E0,7.664212189E0,8.456948631E0
1.280353679E1,-6.321354675E-1,3.565585327E0,7.646399231E0,8.460520975E0
1.281357879E1,-5.891748047E-1,3.671864319E0,7.385791168E0,8.269197404E0
1.282362079E1,-4.763095093E-1,3.773203583E0,7.129823456E0,8.080737500E0
1.283366279E1,-3.823049927E-1,3.819607086E0,7.015012207E0,7.996621266E0
1.284370479E1,-3.242257690E-1,3.869303741E0,6.971901855E0,7.980228648E0
1.285374579E1,-2.808160400E-1,3.928281097E0,7.105573883E0,8.124003338E0
1.286378779E1,-3.519181824E-1,3.932173004E0,7.457791443E0,8.438274951E0
1.287382979E1,-5.650749207E-1,3.976331177E0,7.879314880E0,8.843874845E0
1.288387179E1,-7.565267944E-1,4.021237793E0,8.138725433E0,9.109420281E0
1.289391279E1,-9.515711975E-1,4.093537445E0,8.376580811E0,9.371747043E0
1.290395479E1,-1.081650696E0,4.212689667E0,8.488847351E0,9.538199610E0
1.291399679E1,-1.158590698E0,4.325405273E0,8.619974670E0,9.713672143E0
1.292403879E1,-1.139131165E0,4.358636169E0,8.777297516E0,9.865915099E0
1.293408079E1,-1.093176727E0,4.330644379E0,8.837023315E0,9.901641135E0
1.294412179E1,-8.952882385E-1,4.299808502E0,8.989406433E0,1.000496488E1
1.295416379E1,-6.858737183E-1,4.290677490E0,9.183253326E0,1.015935420E1
1.296420579E1,-6.628216553E-1,4.324806519E0,9.374106445E0,1.034490965E1
1.297424779E1,-7.000941467E-1,4.396806793E0,9.463320923E0,1.045832131E1
1.298428979E1,-7.762857056E-1,4.441264343E0,9.612261200E0,1.061710949E1
1.299433079E1,-8.315208435E-1,4.456382904E0,9.794881439E0,1.079307546E1
1.300437279E1,-7.114704895E-1,4.383484497E0,9.995464325E0,1.093756982E1
1.301441479E1,-4.957690430E-1,4.263134766E0,1.026370651E1,1.112491691E1
1.302445679E1,-3.688330078E-1,4.203259277E0,1.047237259E1,1.129043905E1
1.303449879E1,-6.671626282E-1,4.439318390E0,1.048704208E1,1.140748462E1
1.304453979E1,-1.126407623E0,5.022805023E0,1.042956161E1,1.163069731E1
1.305458179E1,-1.444496155E0,5.500312042E0,1.049647247E1,1.193800386E1
1.306462379E1,-1.313967590E0,5.518274689E0,1.073058563E1,1.213768241E1
1.307466579E1,-8.180488586E-1,5.081483002E0,1.079914307E1,1.196294965E1
1.308470679E1,-3.276686096E-1,4.567451935E0,1.076651093E1,1.169986074E1
1.309474879E1,4.191284180E-3,4.210144958E0,1.080168777E1,1.159317890E1
1.310479079E1,-1.076261902E-1,3.841910706E0,1.085991669E1,1.151996752E1
1.311483279E1,-6.417155457E-1,3.646566925E0,1.079390396E1,1.141129317E1
1.312487479E1,-1.191671906E0,3.596121826E0,1.021969803E1,1.089928447E1
1.313491579E1,-1.678908691E0,3.592678986E0,9.503587189E0,1.029777870E1
1.314495779E1,-1.991309052E0,3.733985138E0,8.966653748E0,9.915081249E0
1.315499979E1,-1.925446014E0,3.871848450E0,8.467741241E0,9.507954275E0
1.316504179E1,-1.666484528E0,3.863465881E0,8.178542633E0,9.197396311E0
1.317508379E1,-1.290316772E0,3.782035217E0,8.145461426E0,9.072885406E0
1.318512479E1,-9.363029480E-1,3.697311401E0,8.216862946E0,9.058896813E0
1.319516679E1,-8.021818542E-1,3.630849609E0,8.501720581E0,9.279322036E0
1.320520879E1,-7.414082336E-1,3.510799255E0,8.668922882E0,9.382197052E0
1.321525079E1,-6.738986206E-1,3.340603180E0,8.737929382E0,9.378975362E0
1.322529279E1,-6.134243774E-1,3.222049713E0,8.799301758E0,9.390719102E0
1.323533379E1,-5.086422729E-1,3.094963989E0,8.880133667E0,9.417764756E0
1.324537579E1,-3.900888062E-1,2.928210754E0,8.858428802E0,9.338005587E0
1.325541779E1,-2.586621094E-1,2.750530243E0,8.783135376E0,9.207376919E0
1.326545979E1,-1.016386414E-1,2.654729462E0,8.721613312E0,9.117261524E0
1.327550179E1,1.691482544E-2,2.591261444E0,8.597970428E0,8.979978701E0
1.328554279E1,-3.637435913E-2,2.592608643E0,8.335416412E0,8.729381962E0
1.329558479E1,-1.796264648E-1,2.694546661E0,8.093669128E0,8.532310785E0
1.330562679E1,-3.165916443E-1,2.853516083E0,7.778125305E0,8.291080603E0
1.331566879E1,-3.658392334E-1,2.980751495E0,7.414082336E0,7.999208380E0
1.332570979E1,-3.441343689E-1,3.073558502E0,7.166646881E0,7.805512017E0
1.333575179E1,-2.972817993E-1,3.199596405E0,6.960525513E0,7.666466529E0
1.334579379E1,-2.912942505E-1,3.369044037E0,6.781647491E0,7.577997939E0
1.335583579E1,-3.100053406E-1,3.566483459E0,6.698719940E0,7.595311476E0
1.336587779E1,-3.529660034E-1,3.735182648E0,6.722520447E0,7.698600884E0
1.337591879E1,-3.772155762E-1,3.890110474E0,6.868167572E0,7.902339963E0
1.338596079E1,-4.559518433E-1,4.053271179E0,7.111711121E0,8.198373887E0
1.339600279E1,-5.219645691E-1,4.152514801E0,7.454498291E0,8.548998243E0
1.340604479E1,-4.155358887E-1,4.144880676E0,7.769593048E0,8.815854016E0
1.341608679E1,-3.511697388E-1,4.069138184E0,8.006999359E0,8.988506243E0
1.342612779E1,-2.737806702E-1,4.027225342E0,8.222251740E0,9.159635554E0
1.343616979E1,-2.192939758E-1,4.024231567E0,8.414601746E0,9.329954560E0
1.344621179E1,-2.507286072E-1,4.084855499E0,8.545130310E0,9.474606129E0
1.345625379E1,-3.245251465E-1,4.155807953E0,8.587791595E0,9.546005489E0
1.346629579E1,-4.321513367E-1,4.253404999E0,8.693172455E0,9.687592900E0
1.347633679E1,-5.674699402E-1,4.353995819E0,8.845555573E0,9.875381264E0
1.348637879E1,-6.084846497E-1,4.391867065E0,8.936266937E0,9.975751434E0
1.349642079E1,-5.583389282E-1,4.373305664E0,9.010961609E0,1.003169846E1
1.350646279E1,-5.583389282E-1,4.384682007E0,9.067244568E0,1.008722473E1
1.351650479E1,-6.119274902E-1,4.469854889E0,9.198222198E0,1.024506465E1
1.352654579E1,-6.014492798E-1,4.539160767E0,9.370962982E0,1.042979717E1
1.353658779E1,-4.354444885E-1,4.459975433E0,9.563312988E0,1.056115278E1
1.354662979E1,-2.448907471E-1,4.277205505E0,9.710457001E0,1.061354953E1
1.355667179E1,-1.190025330E-1,4.172573090E0,9.781110077E0,1.063459647E1
1.356671379E1,-2.574645996E-1,4.281396790E0,9.761351166E0,1.066211157E1
1.357675479E1,-7.725434875E-1,4.843328247E0,9.583371277E0,1.076548452E1
1.358679679E1,-1.215622101E0,5.467081146E0,9.610464935E0,1.112329761E1
1.359683879E1,-1.305585022E0,5.677543488E0,9.949360199E0,1.152947617E1
1.360688079E1,-8.690927124E-1,5.379962311E0,1.010713211E1,1.148274515E1
1.361692279E1,-1.710942078E-1,4.717290344E0,1.042132874E1,1.144055043E1
1.362696379E1,6.204597473E-1,4.186494141E0,1.076681030E1,1.156874702E1
1.363700579E1,1.166823578E0,3.720962219E0,1.084719315E1,1.152686585E1
1.364704779E1,1.241667938E0,3.081192627E0,1.121168518E1,1.169347561E1
1.365708583E1,9.580078125E-1,2.679428101E0,1.182406174E1,1.216164256E1
1.366712783E1,2.757266235E-1,2.656525726E0,1.172347092E1,1.202384815E1
1.367716883E1,-4.725672913E-1,2.931952972E0,1.105451202E1,1.144647999E1
1.368721083E1,-8.875044250E-1,3.227737885E0,1.025457550E1,1.078713468E1
1.369725283E1,-9.449848938E-1,3.690874786E0,9.962981873E0,1.066660963E1
1.370729483E1,-7.137158203E-1,3.909869385E0,9.428892517E0,1.023232539E1
1.371733583E1,-3.062631226E-1,3.761527863E0,8.879385223E0,9.648127845E0
1.372737783E1,3.278182983E-2,3.594475250E0,8.596922607E0,9.318176071E0
1.373741983E1,3.082090759E-1,3.485651550E0,8.671467590E0,9.350888179E0
1.374746183E1,3.824546814E-1,3.331921234E0,8.897647247E0,9.508737941E0
1.375750383E1,1.824705505E-1,3.072360992E0,8.878786469E0,9.397103103E0
1.376754483E1,-1.206491089E-1,2.956052856E0,8.692873077E0,9.182529447E0
1.377758683E1,-2.845582581E-1,3.005599823E0,8.304730225E0,8.836466930E0
1.378762883E1,-4.987628174E-1,3.065924377E0,7.842042389E0,8.434825752E0
1.379767083E1,-6.851252747E-1,3.166365509E0,7.368427277E0,8.049160684E0
1.380771283E1,-7.819738770E-1,3.290307770E0,7.020401001E0,7.792537365E0
1.381775383E1,-8.544232178E-1,3.331771545E0,6.710695038E0,7.540833413E0
1.382779583E1,-8.887019348E-1,3.325185242E0,6.514752502E0,7.368083074E0
1.383783783E1,-8.684939575E-1,3.320544891E0,6.406826935E0,7.268268811E0
1.384787983E1,-8.101153564E-1,3.302731934E0,6.503076782E0,7.338551134E0
1.385792183E1,-7.327262878E-1,3.177891541E0,6.733747101E0,7.481927056E0
1.386796283E1,-6.689588928E-1,2.993624725E0,6.955136719E0,7.601527595E0
1.387800483E1,-6.313870239E-1,2.873424683E0,7.106322327E0,7.691231110E0
1.388804683E1,-5.538482666E-1,2.875670013E0,7.308701477E0,7.873585156E0
1.389808883E1,-4.679269409E-1,2.931503906E0,7.550748138E0,8.113351233E0
1.390813083E1,-3.356021118E-1,2.942281494E0,7.784561920E0,8.328808646E0
1.391817183E1,-1.827699280E-1,2.872975616E0,8.036637726E0,8.536682006E0
1.392821383E1,-2.140548706E-2,2.841391296E0,8.286767578E0,8.760392662E0
1.393825583E1,3.323089600E-2,2.930456085E0,8.399932251E0,8.896490262E0
1.394829783E1,-5.837860107E-3,3.084036713E0,8.443341980E0,8.988956576E0
1.395833983E1,-1.338217163E-1,3.258873138E0,8.444689178E0,9.052675721E0
1.396838083E1,-3.412902832E-1,3.437601471E0,8.340655518E0,9.027741544E0
1.397842283E1,-4.966671753E-1,3.620670776E0,8.284821625E0,9.055065130E0
1.398846483E1,-5.668711853E-1,3.804937592E0,8.336464233E0,9.181259659E0
1.399850683E1,-5.727090454E-1,3.921545105E0,8.374485168E0,9.264907636E0
1.400854883E1,-4.855902100E-1,3.966302032E0,8.425529022E0,9.325067773E0
1.401858983E1,-3.679348755E-1,3.977977753E0,8.591833191E0,9.475192909E0
1.402863183E1,-3.531156921E-1,4.066144409E0,8.687184906E0,9.598197885E0
1.403867383E1,-4.146377563E-1,4.176914062E0,8.822503510E0,9.770112780E0
1.404871583E1,-4.818479919E-1,4.238436127E0,8.986412659E0,9.947468560E0
1.405875783E1,-5.029541016E-1,4.292922821E0,9.204808502E0,1.016910265E1
1.406879883E1,-5.177732849E-1,4.350852356E0,9.399553528E0,1.037061290E1
1.407884083E1,-5.418731689E-1,4.414170685E0,9.650132446E0,1.062560989E1
1.408888283E1,-6.210585022E-1,4.467459869E0,1.000669098E1,1.097623686E1
1.409892483E1,-5.191204834E-1,4.438420258E0,1.042282562E1,1.134038599E1
1.410896683E1,-2.411485291E-1,4.271068268E0,1.086201233E1,1.167405194E1
1.411900783E1,2.634521484E-2,4.052672424E0,1.114657059E1,1.186047569E1
1.412904983E1,1.392105103E-2,4.024081879E0,1.126347748E1,1.196074219E1
1.413909183E1,-4.330494690E-1,4.334685974E0,1.102352646E1,1.185306584E1
1.414913383E1,-1.287472687E0,5.149142303E0,1.058404037E1,1.184031938E1
1.415917583E1,-1.923050995E0,5.836063843E0,1.060200302E1,1.225398851E1
1.416921683E1,-1.794767761E0,5.639372864E0,1.084569626E1,1.235527600E1
1.417925883E1,-9.454339600E-1,4.809199219E0,1.096619568E1,1.201164810E1
1.418930083E1,-3.965254211E-1,4.088897095E0,1.121288269E1,1.194173564E1
1.419934283E1,-9.939331055E-2,3.592080231E0,1.129012207E1,1.184819715E1
1.420938483E1,-9.699829102E-2,2.959645386E0,1.156225616E1,1.193543787E1
1.421942583E1,-6.171665955E-1,2.616259460E0,1.205203766E1,1.234817071E1
1.422946783E1,-1.264270935E0,2.574047241E0,1.154848480E1,1.189922693E1
1.423950983E1,-1.689835968E0,2.608026581E0,1.067355423E1,1.111674899E1
1.424955183E1,-1.785936127E0,2.829715576E0,1.012913635E1,1.066753305E1
1.425959383E1,-1.585053864E0,3.244802399E0,9.776769104E0,1.042239668E1
1.426963483E1,-1.108295288E0,3.522924042E0,9.193432159E0,9.907497521E0
1.427967683E1,-4.816983032E-1,3.602558441E0,9.019793243E0,9.724563267E0
1.428971883E1,1.166075134E-1,3.476819916E0,9.193731537E0,9.829881668E0
1.429976083E1,5.056484985E-1,3.239563293E0,9.582473145E0,1.012789427E1
1.430980283E1,6.667135620E-1,2.921624451E0,9.853858795E0,1.029946259E1
1.431984383E1,6.355783081E-1,2.583178253E0,9.993668060E0,1.034167158E1
1.432988583E1,5.066963196E-1,2.338287506E0,9.841883698E0,1.012852429E1
1.433992783E1,4.236190796E-1,2.177821198E0,9.458979950E0,9.715691431E0
1.434996983E1,2.823129272E-1,2.089504852E0,9.036558380E0,9.279284373E0
1.436001183E1,1.167572021E-1,2.113005981E0,8.547076263E0,8.805165483E0
1.437005283E1,2.140548706E-2,2.257605286E0,8.052355042E0,8.362874000E0
1.438009483E1,7.439529419E-2,2.404300232E0,7.641908569E0,8.011551713E0
1.439013683E1,1.755848694E-1,2.436782684E0,7.246131592E0,7.646905449E0
1.440017883E1,1.454974365E-1,2.468516693E0,6.982230377E0,7.407177952E0
1.441022083E1,9.804611206E-2,2.620600433E0,6.732848969E0,7.225539074E0
1.442026183E1,1.104702759E-1,2.805166626E0,6.529421997E0,7.107356407E0
1.443030383E1,9.819580078E-2,2.926713867E0,6.474935303E0,7.106341087E0
1.444034583E1,7.349716187E-2,2.999312897E0,6.431824951E0,7.097158015E0
1.445038783E1,1.278341675E-1,3.111579437E0,6.395749969E0,7.113640829E0
1.446042983E1,1.737886047E-1,3.250939636E0,6.446045380E0,7.221517294E0
1.447047083E1,1.538800049E-1,3.347937927E0,6.554869080E0,7.361975012E0
1.448051283E1,2.068698120E-1,3.324736176E0,6.788832550E0,7.562070692E0
1.449055483E1,3.231779480E-1,3.201542358E0,7.068151703E0,7.766150008E0
1.450059683E1,3.158432007E-1,3.116519165E0,7.266040192E0,7.912508370E0
1.451063883E1,2.631527710E-1,3.151696014E0,7.433392181E0,8.078227310E0
1.452067983E1,2.498304749E-1,3.248544617E0,7.580835571E0,8.251334762E0
1.453072183E1,1.501377869E-1,3.366199951E0,7.761809235E0,8.461650315E0
1.454076383E1,-5.987548828E-2,3.516487427E0,7.969277802E0,8.710835642E0
1.455080583E1,-2.207908630E-1,3.663781128E0,8.165070648E0,8.952118154E0
1.456084783E1,-2.264790344E-1,3.776796112E0,8.352031860E0,9.169073989E0
1.457088883E1,-3.390449524E-1,3.870650940E0,8.424930267E0,9.277733570E0
1.458093083E1,-4.334985352E-1,4.030668182E0,8.424331512E0,9.348987561E0
1.459097283E1,-4.903802490E-1,4.218826904E0,8.430618439E0,9.440037102E0
1.460101483E1,-4.977149963E-1,4.376000061E0,8.439899139E0,9.519926168E0
1.461105683E1,-3.935316467E-1,4.429289246E0,8.513096924E0,9.604493199E0
1.462109783E1,-2.835104370E-1,4.485572205E0,8.730894012E0,9.819839430E0
1.463113983E1,-1.883084106E-1,4.583618317E0,8.999435577E0,1.010123050E1
1.464118183E1,-4.086502075E-2,4.632117462E0,9.298363953E0,1.038834705E1
1.465122383E1,5.373825073E-2,4.592599640E0,9.561367035E0,1.060728989E1
1.466126608E1,9.580078125E-3,4.556225281E0,9.726324005E0,1.074060795E1
1.467130808E1,-8.517288208E-2,4.596940613E0,9.933193817E0,1.094565927E1
1.468134908E1,-1.773811340E-1,4.652026062E0,1.018631744E1,1.119972650E1
1.469139108E1,-2.315684509E-1,4.675227814E0,1.033540741E1,1.134601363E1
1.470143308E1,-2.685415649E-1,4.780608673E0,1.053134995E1,1.156873656E1
1.471147508E1,-4.171824646E-1,5.080584869E0,1.064840652E1,1.180571664E1
1.472151708E1,-5.956114197E-1,5.627098389E0,1.061367874E1,1.202784959E1
1.473155808E1,-5.017565918E-1,5.864804077E0,1.067130890E1,1.218706364E1
1.474160008E1,-8.846603394E-2,5.464087372E0,1.066547104E1,1.198400390E1
1.475164208E1,5.806425476E-1,4.734205170E0,1.057670563E1,1.160243708E1
1.476168408E1,1.157842255E0,4.062851257E0,1.034962784E1,1.117864730E1
1.477172608E1,1.484163666E0,3.434757385E0,1.039303757E1,1.104606400E1
1.478176708E1,1.468146973E0,2.690056000E0,1.055440201E1,1.099032568E1
1.479180908E1,9.812095642E-1,2.082170105E0,1.090332642E1,1.114364085E1
1.480185108E1,3.188369751E-1,1.983375549E0,1.116782639E1,1.134706049E1
1.481189308E1,-3.725752258E-1,2.287842407E0,1.051757858E1,1.076998117E1
1.482193508E1,-7.714956665E-1,2.691852264E0,9.548793182E0,9.950915808E0
1.483197608E1,-1.217268677E0,3.319197693E0,9.089398499E0,9.752742251E0
1.484201808E1,-1.095571747E0,3.731739807E0,8.778195648E0,9.601191503E0
1.485206008E1,-4.581971741E-1,3.744912415E0,8.324040070E0,9.139144201E0
1.486210208E1,2.969824219E-1,3.689826965E0,7.930807800E0,8.752184525E0
1.487214408E1,8.520281982E-1,3.628304901E0,7.723339233E0,8.575576798E0
1.488218508E1,1.102607117E0,3.482508087E0,8.098459167E0,8.884179530E0
1.489222708E1,1.225052490E0,3.022364960E0,8.608149261E0,9.205198383E0
1.490226908E1,9.901908875E-1,2.738555145E0,9.231153717E0,9.679584765E0
1.491231108E1,7.430548096E-1,2.767445068E0,9.539063416E0,9.960151279E0
1.492235308E1,4.957690430E-1,2.768343201E0,9.440119171E0,9.850145227E0
1.493239408E1,3.170407104E-1,2.711162109E0,9.217681732E0,9.613353801E0
1.494243608E1,2.131567383E-1,2.711461487E0,8.777297516E0,9.189037538E0
1.495247808E1,-1.930984497E-2,2.859204254E0,8.120014343E0,8.608719694E0
1.496252008E1,-2.502795410E-1,3.136727142E0,7.642806702E0,8.265239942E0
1.497256208E1,-3.984713745E-1,3.379522247E0,7.134912872E0,7.904867599E0
1.498260408E1,-5.258564758E-1,3.537144470E0,6.822063446E0,7.702497368E0
1.499264508E1,-5.269042969E-1,3.633693695E0,6.621779938E0,7.571613273E0
1.500268708E1,-4.971162415E-1,3.687731323E0,6.503376160E0,7.492688993E0
1.501272908E1,-4.655319214E-1,3.682043152E0,6.551575928E0,7.529761542E0
1.502277108E1,-4.099974060E-1,3.638633423E0,6.717880096E0,7.650991050E0
1.503281308E1,-4.884342957E-1,3.591331787E0,6.848408661E0,7.748350357E0
1.504285408E1,-6.367758179E-1,3.629203033E0,7.063661041E0,7.966925719E0
1.505289608E1,-7.185058594E-1,3.701053619E0,7.212451630E0,8.138397083E0
1.506293808E1,-7.858657837E-1,3.732188873E0,7.367529144E0,8.296222303E0
1.507298008E1,-8.186476135E-1,3.744163971E0,7.595804443E0,8.507948807E0
1.508302208E1,-9.358538818E-1,3.779640198E0,7.763455811E0,8.685202855E0
1.509306308E1,-1.039588165E0,3.857328644E0,7.893385620E0,8.846765757E0
1.510310508E1,-1.167871399E0,3.948489075E0,8.031548309E0,9.025533659E0
1.511314708E1,-1.269510040E0,4.103117523E0,8.115823059E0,9.182255337E0
1.512318908E1,-1.262175293E0,4.305496674E0,8.121960297E0,9.278826819E0
1.513323108E1,-1.197210388E0,4.486021271E0,8.203091583E0,9.425943511E0
1.514327208E1,-1.152303772E0,4.626878357E0,8.386759644E0,9.647463119E0
1.515331408E1,-1.053958282E0,4.698579254E0,8.571325836E0,9.831332649E0
1.516335608E1,-8.325686646E-1,4.641098785E0,8.753497009E0,9.942669582E0
1.517339808E1,-6.674620056E-1,4.539011078E0,9.004674683E0,1.010605231E1
1.518344008E1,-6.243516541E-1,4.535418549E0,9.185947723E0,1.026359937E1
1.519348208E1,-6.303392029E-1,4.568799133E0,9.369765472E0,1.044335952E1
1.520352308E1,-5.731581116E-1,4.503983917E0,9.723479919E0,1.073128339E1
1.521356508E1,-5.164260864E-1,4.364474030E0,1.008303223E1,1.099922126E1
1.522360708E1,-4.204756165E-1,4.250261536E0,1.035741165E1,1.120345924E1
1.523364908E1,-3.109034729E-1,4.184248810E0,1.062894699E1,1.142712183E1
1.524369108E1,-2.140548706E-1,4.184099121E0,1.090317673E1,1.168040101E1
1.525373208E1,-1.704954529E-1,4.185296631E0,1.105870331E1,1.182542580E1
1.526377408E1,-2.733316040E-1,4.243675232E0,1.113788864E1,1.192208258E1
1.527381608E1,-7.086264038E-1,4.653373260E0,1.086725143E1,1.184285387E1
1.528385808E1,-1.151106262E0,5.382507019E0,1.068822372E1,1.202225244E1
1.529390008E1,-1.171463928E0,5.658233643E0,1.104717728E1,1.246707911E1
1.530394108E1,-5.698649597E-1,5.084177399E0,1.139460480E1,1.249042131E1
1.531398308E1,2.212399292E-1,4.072131958E0,1.171374115E1,1.240334380E1
1.532402508E1,8.503816223E-1,3.275937653E0,1.202868622E1,1.249576763E1
1.533406708E1,1.107397156E0,2.510279846E0,1.206700653E1,1.237499414E1
1.534410908E1,7.023394775E-1,2.041155396E0,1.235605545E1,1.254319347E1
1.535415008E1,9.220825195E-2,1.946552124E0,1.207523941E1,1.223147474E1
1.536419208E1,-4.821473694E-1,2.028880920E0,1.127275818E1,1.146402638E1
1.537423408E1,-8.387059021E-1,2.271526337E0,1.009455826E1,1.038091354E1
1.538427608E1,-1.153800659E0,2.694995728E0,9.386380920E0,9.833534701E0
1.539431808E1,-1.192869415E0,3.162323914E0,9.183852081E0,9.786029278E0
1.540436008E1,-8.422984314E-1,3.436104584E0,8.656349030E0,9.351398819E0
1.541440108E1,-3.501219177E-1,3.596570892E0,7.934699707E0,8.718793895E0
1.542444308E1,1.200503540E-1,3.520678711E0,7.583380280E0,8.361653373E0
1.543448508E1,3.926335144E-1,3.233276367E0,7.858358459E0,8.506587731E0
1.544452708E1,4.646337891E-1,2.921175385E0,8.504414978E0,9.004122628E0
1.545456908E1,4.016148376E-1,2.562072144E0,8.954678650E0,9.322648651E0
1.546461008E1,2.558180237E-1,2.271975403E0,9.321416016E0,9.597713875E0
1.547465208E1,2.378553772E-1,2.097438354E0,9.398356018E0,9.632492859E0
1.548469408E1,3.101550293E-1,1.955383759E0,9.340127106E0,9.547653960E0
1.549473608E1,4.174818420E-1,1.872605896E0,9.199868774E0,9.397793858E0
1.550477808E1,4.340972900E-1,1.815873871E0,8.908424835E0,9.101970744E0
1.551481908E1,3.460803223E-1,1.893412628E0,8.577163696E0,8.790478943E0
1.552486108E1,3.610491943E-1,2.033521271E0,8.338410187E0,8.590381233E0
1.553490308E1,4.331991577E-1,2.126028900E0,7.982749786E0,8.272360881E0
1.554494508E1,4.198768616E-1,2.200424194E0,7.715256042E0,8.033886918E0
1.555498708E1,4.884342957E-1,2.339335327E0,7.461234283E0,7.834607512E0
1.556502808E1,5.034031677E-1,2.529290314E0,7.175628204E0,7.624982909E0
1.557507008E1,4.333488464E-1,2.716401215E0,6.940616913E0,7.465841541E0
1.558511208E1,3.891906738E-1,2.859503632E0,6.776558075E0,7.365457877E0
1.559515408E1,3.935316467E-1,2.949466553E0,6.603667603E0,7.243110237E0
1.560519608E1,4.321513367E-1,3.036884766E0,6.489006042E0,7.177508152E0
1.561523808E1,4.296066284E-1,3.111579437E0,6.493646393E0,7.213454923E0
1.562527908E1,4.007167053E-1,3.135230255E0,6.641538849E0,7.355289315E0
1.563532108E1,3.125500488E-1,3.141966248E0,6.959777069E0,7.642521592E0
1.564536308E1,2.182461548E-1,3.115920410E0,7.315287781E0,7.954245829E0
1.565540508E1,9.654922485E-2,3.130739594E0,7.588170319E0,8.209213174E0
1.566544604E1,-1.173559570E-1,3.282973022E0,7.998467102E0,8.646800580E0
1.567548704E1,-1.541793823E-1,3.433260498E0,8.336613922E0,9.017215791E0
1.568552904E1,-1.450483704E-1,3.548221436E0,8.541687469E0,9.250477783E0
1.569557104E1,-1.203497314E-1,3.634591827E0,8.704698486E0,9.433796561E0
1.570561304E1,-9.699829102E-2,3.824247437E0,8.785829773E0,9.582540473E0
1.571565504E1,-1.624122620E-1,4.110003204E0,8.792416077E0,9.706960624E0
1.572569604E1,-2.338137817E-1,4.319866791E0,8.948391724E0,9.939297380E0
1.573573804E1,-1.019380188E-1,4.330794067E0,9.059161377E0,1.004164197E1
1.574578004E1,-2.948867798E-2,4.269721069E0,9.228908386E0,1.016878250E1
1.575582204E1,-3.188369751E-2,4.276007996E0,9.530980225E0,1.044628379E1
1.576586404E1,-4.775070190E-2,4.292773132E0,9.820029144E0,1.071742290E1
1.577590604E1,-3.418890381E-1,4.488116913E0,1.004950195E1,1.101147452E1
1.578594704E1,-9.413923645E-1,5.268743591E0,1.015952316E1,1.148310888E1
1.579598904E1,-1.308129730E0,5.976621552E0,1.053179901E1,1.217990144E1
1.580603104E1,-9.948312378E-1,5.764362946E0,1.104433319E1,1.249779441E1
1.581607304E1,-9.295669556E-2,4.777465210E0,1.155596924E1,1.250492862E1
1.582611504E1,5.906716919E-1,3.772155762E0,1.179472275E1,1.239731974E1
1.583615604E1,1.185085602E0,2.974763947E0,1.169877228E1,1.212909400E1
1.584619804E1,1.068777466E0,2.374362488E0,1.209514801E1,1.237224668E1
1.585624004E1,2.844085693E-1,2.292033691E0,1.258657608E1,1.279672630E1
1.586628204E1,-5.029541016E-1,2.461032257E0,1.228764771E1,1.254176737E1
1.587632404E1,-9.731263733E-1,2.660267944E0,1.157213562E1,1.191378711E1
1.588636504E1,-1.130598907E0,2.939587097E0,1.067430267E1,1.112924812E1
1.589640704E1,-9.446855164E-1,3.172353058E0,1.048000671E1,1.099030461E1
1.590644904E1,-3.570075989E-1,3.250640259E0,1.013721954E1,1.065163540E1
1.591649104E1,2.402503967E-1,3.323538666E0,9.290729828E0,9.870222401E0
1.592653304E1,6.477030945E-1,3.192860413E0,8.718769226E0,9.307567552E0
1.593657504E1,7.247927856E-1,2.872227173E0,8.906029816E0,9.385754130E0
1.594661604E1,5.301974487E-1,2.639760590E0,9.091793518E0,9.482096534E0
1.595665804E1,4.385879517E-2,2.555036774E0,9.057215424E0,9.410806965E0
1.596670004E1,-2.091151428E-1,2.542462921E0,9.030720520E0,9.384122759E0
1.597674204E1,-1.462458801E-1,2.474055176E0,8.703201599E0,9.049201895E0
1.598678404E1,-4.640350342E-2,2.437980194E0,8.194110260E0,8.549230589E0
1.599682504E1,-1.689985657E-1,2.575095062E0,7.846682739E0,8.260151639E0
1.600686704E1,-2.966830444E-1,2.883304138E0,7.534282379E0,8.072600235E0
1.601690904E1,-3.529660034E-1,3.063379669E0,7.103478241E0,7.743919106E0
1.602695104E1,-3.656895447E-1,3.046764221E0,6.892267456E0,7.544524620E0
1.603699304E1,-4.758604431E-1,2.991828461E0,6.731651459E0,7.381911139E0
1.604703504E1,-7.096742249E-1,2.992726593E0,6.571185150E0,7.255378987E0
1.605707604E1,-1.007704468E0,3.027304688E0,6.540648651E0,7.277370867E0
1.606711804E1,-1.329834595E0,3.067271576E0,6.640191650E0,7.434296209E0
1.607716004E1,-1.515598297E0,3.081042938E0,6.678961029E0,7.509885766E0
1.608720204E1,-1.610650635E0,3.053051147E0,6.721622314E0,7.556157973E0
1.609724404E1,-1.575473785E0,3.060535583E0,6.790179749E0,7.612853389E0
1.610728504E1,-1.529369659E0,3.121608582E0,6.953939209E0,7.774360566E0
1.611732704E1,-1.535207520E0,3.102149048E0,7.147935791E0,7.941862308E0
1.612736904E1,-1.580712891E0,3.077151031E0,7.420219574E0,8.187012290E0
1.613741104E1,-1.634002075E0,3.102448425E0,7.725883942E0,8.484363953E0
1.614745304E1,-1.650467834E0,3.130440216E0,7.986042938E0,8.735020425E0
1.615749504E1,-1.595382385E0,3.173101501E0,8.336314545E0,9.061344176E0
1.616753604E1,-1.570084991E0,3.304378510E0,8.672066345E0,9.412163349E0
1.617757804E1,-1.539548492E0,3.449127502E0,9.004225616E0,9.764362193E0
1.618762004E1,-1.463356934E0,3.494932251E0,9.430090027E0,1.016280290E1
1.619766204E1,-1.296454010E0,3.435206451E0,9.835596771E0,1.049859039E1
1.620770404E1,-1.153950348E0,3.401376801E0,1.010623398E1,1.072552706E1
1.621774504E1,-1.112187195E0,3.487896881E0,1.043450134E1,1.105808316E1
1.622778704E1,-1.144070892E0,3.590283966E0,1.069241501E1,1.133696502E1
1.623782904E1,-1.163231049E0,3.650758209E0,1.094434113E1,1.159567784E1
1.624787104E1,-1.217418365E0,3.706891479E0,1.109253296E1,1.175871759E1
1.625791304E1,-1.235680389E0,3.804488525E0,1.109073669E1,1.179005850E1
1.626795504E1,-1.220711517E0,3.860771484E0,1.093491074E1,1.166053026E1
1.627799604E1,-1.288221130E0,4.025578766E0,1.056158707E1,1.137593598E1
1.628803804E1,-1.689686279E0,4.558769989E0,9.985435181E0,1.110613971E1
1.629808004E1,-2.023043060E0,5.321733398E0,9.789642334E0,1.132478020E1
1.630812204E1,-1.902693329E0,5.474116516E0,9.880653076E0,1.145484608E1
1.631816404E1,-1.269959106E0,4.883444824E0,9.989626465E0,1.119166951E1
1.632820504E1,-5.074447632E-1,4.142335968E0,1.005040009E1,1.088241652E1
1.633824704E1,6.436614990E-3,3.541186066E0,1.020143600E1,1.079858031E1
1.634828904E1,2.348616028E-1,3.051554260E0,1.046578629E1,1.090411968E1
1.635833104E1,5.269042969E-2,2.639461212E0,1.068627777E1,1.100754579E1
1.636837304E1,-3.541635132E-1,2.490371246E0,1.076845688E1,1.105834727E1
1.637841504E1,-7.424560547E-1,2.481389923E0,1.058044785E1,1.089286067E1
1.638845604E1,-9.431886292E-1,2.639461212E0,1.013183075E1,1.051239053E1
1.639849804E1,-1.064586182E0,2.954406281E0,9.738299103E0,1.023212244E1
1.640854004E1,-8.406518555E-1,3.215912476E0,9.463620300E0,1.003039869E1
1.641858204E1,-3.474275208E-1,3.227588196E0,9.207652588E0,9.763139742E0
1.642862404E1,7.694000244E-2,3.018473053E0,9.247170410E0,9.727654390E0
1.643866504E1,3.149450684E-1,2.731819153E0,9.452543335E0,9.844419829E0
1.644870704E1,5.309458923E-1,2.481389923E0,9.914482727E0,1.023406895E1
1.645874904E1,6.882687378E-1,2.115700378E0,1.026116180E1,1.049958778E1
1.646879104E1,7.770341492E-1,1.728006592E0,1.056293427E1,1.073151290E1
1.647883304E1,8.698411560E-1,1.449286194E0,1.058898010E1,1.072303846E1
1.648887504E1,7.888595581E-1,1.330133972E0,1.050904633E1,1.062222248E1
1.649891604E1,6.453080750E-1,1.365759888E0,1.036369858E1,1.047320251E1
1.650895804E1,5.129832458E-1,1.502276001E0,1.004950195E1,1.017410804E1
1.651900004E1,4.330494690E-1,1.596729584E0,9.613907776E0,9.755219112E0
1.652904204E1,3.936813354E-1,1.698817291E0,9.159602509E0,9.324123728E0
1.653908404E1,3.923341370E-1,1.850152588E0,8.699309692E0,8.902526596E0
1.654912504E1,3.486250305E-1,2.005679169E0,8.344697113E0,8.589427120E0
1.655916704E1,3.369493103E-1,2.149080963E0,7.996521149E0,8.287124610E0
1.656920904E1,3.385958862E-1,2.277962952E0,7.725584564E0,8.061539508E0
1.657925104E1,2.941383362E-1,2.413131866E0,7.561974792E0,7.943121901E0
1.658929304E1,1.898052979E-1,2.556833038E0,7.444319458E0,7.873456257E0
1.659933504E1,2.519261169E-1,2.691702576E0,7.338339844E0,7.820483437E0
1.660937604E1,3.162922668E-1,2.745740204E0,7.379653931E0,7.880255212E0
1.661941804E1,3.803590393E-1,2.793939972E0,7.520960083E0,8.032161237E0
1.662946004E1,4.703219604E-1,2.728675690E0,7.696694641E0,8.179607702E0
1.663950204E1,5.966592407E-1,2.602637787E0,8.002359009E0,8.436081757E0
1.664954404E1,6.180647278E-1,2.512375488E0,8.225993958E0,8.623283087E0
1.665959267E1,6.066883850E-1,2.506537628E0,8.459358673E0,8.843729464E0
1.666963467E1,5.273533630E-1,2.555934906E0,8.651109924E0,9.036183250E0
1.667967667E1,4.372407532E-1,2.617157593E0,8.724307709E0,9.118894579E0
1.668971867E1,4.258644104E-1,2.700683899E0,8.752898254E0,9.169966296E0
1.669976067E1,3.858975220E-1,2.810405731E0,8.794511719E0,9.240710668E0
1.670980267E1,3.523672485E-1,2.925216980E0,8.887468414E0,9.363127249E0
1.671984367E1,4.308041382E-1,2.982697449E0,8.987909546E0,9.479693786E0
1.672988567E1,5.944139099E-1,2.922672272E0,9.031019897E0,9.510765558E0
1.673992767E1,6.277944946E-1,2.881358185E0,9.171876984E0,9.634296981E0
1.674996967E1,5.520520020E-1,2.908900909E0,9.303902435E0,9.763660504E0
1.676001167E1,5.131329346E-1,2.899769897E0,9.395811310E0,9.846483689E0
1.677005367E1,4.465214539E-1,2.806813202E0,9.538614349E0,9.953026950E0
1.678009467E1,4.186793518E-1,2.726430359E0,9.647737427E0,1.003431873E1
1.679013667E1,3.058140564E-1,2.724185028E0,9.717791748E0,1.009703832E1
1.680017867E1,1.927990723E-1,2.735411682E0,9.841883698E0,1.021676677E1
1.681022067E1,2.204914856E-1,2.667902069E0,1.002225861E1,1.037361969E1
1.682026267E1,2.802172852E-1,2.545157318E0,1.015997223E1,1.047766115E1
