"Time (s)","Acceleration x (m/s^2)","Acceleration y (m/s^2)","Acceleration z (m/s^2)","Absolute acceleration (m/s^2)"
1.249249995E-3,-2.582280121E0,-8.842262421E0,1.353335724E0,9.310493699E0
1.129025000E-2,-2.505938873E0,-8.976383514E0,1.426383820E0,9.428136689E0
2.133125000E-2,-2.479743347E0,-9.136550446E0,1.409468994E0,9.571430612E0
3.137225000E-2,-2.296524353E0,-9.280251617E0,1.310524750E0,9.649589074E0
4.141325000E-2,-2.003733215E0,-9.392218781E0,1.269510040E0,9.687124246E0
5.145424999E-2,-1.850901031E0,-9.391919403E0,1.300944672E0,9.660561150E0
6.149524999E-2,-1.934726715E0,-9.191186829E0,1.402433624E0,9.496731167E0
7.153624999E-2,-1.925146637E0,-8.968450012E0,1.552721100E0,9.303237501E0
8.157724999E-2,-1.701062622E0,-8.984616394E0,1.663790131E0,9.294360838E0
9.161824999E-2,-1.454974365E0,-9.218280487E0,1.689835968E0,9.484154740E0
1.016592500E-1,-1.292562103E0,-9.547745361E0,1.619332581E0,9.769974221E0
1.117002500E-1,-1.270707550E0,-9.903256073E0,1.432221680E0,1.008664649E1
1.217412500E-1,-1.362017670E0,-1.019679565E1,1.124311981E0,1.034861397E1
1.317822500E-1,-1.298699341E0,-1.038435562E1,7.762857056E-1,1.049400215E1
1.418232500E-1,-1.026415558E0,-1.038255936E1,4.352947998E-1,1.044224829E1
1.518642500E-1,-7.442523193E-1,-1.032582733E1,2.028282166E-1,1.035460095E1
1.619052500E-1,-5.773493958E-1,-1.036040543E1,7.050338745E-2,1.037671931E1
1.719462500E-1,-5.953120422E-1,-1.035651352E1,1.525328064E-1,1.037473060E1
1.819872500E-1,-8.117619324E-1,-1.010862900E1,5.254074097E-1,1.015477181E1
1.920282500E-1,-1.027912445E0,-9.723030853E0,1.090632019E0,9.837856025E0
2.020692500E-1,-1.084644470E0,-9.439520416E0,1.609153748E0,9.636927679E0
2.121102500E-1,-1.072070618E0,-9.343719635E0,1.950444031E0,9.605137372E0
2.221512500E-1,-1.054257660E0,-9.378896484E0,2.041903839E0,9.656320716E0
2.321922500E-1,-9.523196411E-1,-9.432634735E0,1.975442047E0,9.684207868E0
2.422332500E-1,-9.132508850E-1,-9.398954773E0,1.854194183E0,9.623534386E0
2.522742500E-1,-9.532177734E-1,-9.253607025E0,1.728305969E0,9.461760334E0
2.623152500E-1,-9.740245056E-1,-9.153016205E0,1.585652618E0,9.340274279E0
2.723562500E-1,-9.711804199E-1,-9.250613251E0,1.480720825E0,9.418575852E0
2.823972500E-1,-1.060544586E0,-9.384884033E0,1.401535492E0,9.548041939E0
2.924382500E-1,-1.166823578E0,-9.473050690E0,1.310524750E0,9.634191287E0
3.024792500E-1,-1.320553894E0,-9.417216797E0,1.112486572E0,9.574208122E0
3.125202500E-1,-1.639540558E0,-9.205556946E0,5.640270996E-1,9.367416853E0
3.225612500E-1,-2.167492676E0,-8.815468140E0,-2.320175171E-1,9.080987565E0
3.326022500E-1,-2.699486389E0,-8.265362091E0,-7.807763672E-1,8.730008534E0
3.426432500E-1,-2.984493713E0,-7.737260284E0,-7.970924377E-1,8.331131723E0
3.526842500E-1,-3.050356750E0,-7.149432678E0,-5.748046875E-1,7.794194272E0
3.627252500E-1,-2.930456085E0,-6.446195068E0,-5.216651917E-1,7.100221004E0
3.727662500E-1,-2.878214722E0,-5.839656372E0,-7.402107239E-1,6.552375023E0
3.828072500E-1,-2.728675690E0,-5.462590485E0,-1.196461945E0,6.222305602E0
3.928482500E-1,-2.276316376E0,-5.388494568E0,-1.573677521E0,6.057553210E0
4.028892500E-1,-1.504521332E0,-5.452561340E0,-1.464255066E0,5.842777807E0
4.129302500E-1,-8.222401428E-1,-5.233417053E0,-7.027885437E-1,5.344028877E0
4.229712500E-1,-5.128335571E-1,-4.635260925E0,-9.550140381E-2,4.664521693E0
4.330122500E-1,-3.778143311E-1,-4.181853790E0,-1.400936737E0,4.426428417E0
4.430532500E-1,-5.701643372E-1,-3.988306274E0,-7.656578064E0,8.651870431E0
4.530942500E-1,-1.412013702E0,-4.084556122E0,-1.030442184E1,1.117400962E1
4.631352500E-1,-2.347268829E0,-4.623884583E0,-4.475692749E0,6.849949283E0
4.731762500E-1,-2.856360168E0,-5.653742981E0,-2.005828857E-1,6.337494505E0
4.832172500E-1,-2.868185577E0,-6.703210602E0,8.303233337E-1,7.338184906E0
4.932582500E-1,-3.485501862E0,-7.608827362E0,-7.649093628E-1,8.404050415E0
5.032992500E-1,-5.476511536E0,-9.045090637E0,-7.069349213E0,1.271933731E1
5.133402500E-1,-6.616540833E0,-1.144385239E1,-1.008737320E1,1.662815288E1
5.233812500E-1,-4.785997467E0,-1.297471893E1,-3.859274597E0,1.435768448E1
5.334222500E-1,-4.252506866E0,-1.552107376E1,-6.339317322E-1,1.610557092E1
5.434632500E-1,-5.015470276E0,-1.971580078E1,8.158035278E-2,2.034390321E1
5.535042500E-1,-7.210355988E0,-2.378014893E1,-1.962419128E-1,2.485001463E1
5.635452500E-1,-9.665400696E0,-2.694756226E1,-4.851411438E-1,2.863261155E1
5.735862500E-1,-1.063343765E1,-2.893827255E1,-2.909948730E-1,3.083144973E1
5.836272500E-1,-1.106678650E1,-3.043306412E1,-6.286926270E-3,3.238279164E1
5.936682500E-1,-1.193423264E1,-3.109483795E1,-5.959107971E-1,3.331170914E1
6.037092500E-1,-1.239512421E1,-2.960558487E1,-1.272054749E0,3.212083254E1
6.137502500E-1,-1.057835220E1,-2.443907867E1,-9.885443115E-1,2.664858949E1
6.237871667E-1,-8.172405396E0,-1.947779572E1,-9.813592529E-1,2.114558587E1
6.338281667E-1,-6.416257324E0,-1.672891205E1,-2.079176331E0,1.803740088E1
6.438691667E-1,-5.237608337E0,-1.536240372E1,-3.782633972E0,1.666566257E1
6.539101667E-1,-4.286785583E0,-1.446621735E1,-5.958060150E0,1.622178953E1
6.639511667E-1,-3.336860962E0,-1.342902420E1,-7.997269592E0,1.598216672E1
6.739921667E-1,-2.841540985E0,-1.186043610E1,-7.729476471E0,1.443915185E1
6.840331667E-1,-2.859952698E0,-1.006581802E1,-5.179229736E0,1.167580586E1
6.940741667E-1,-2.881058807E0,-8.385412445E0,-2.703677673E0,9.269601647E0
7.041151667E-1,-2.957400055E0,-6.794371033E0,-7.837701416E-1,7.451442038E0
7.141561667E-1,-2.839595032E0,-4.944817200E0,3.686833191E-1,5.714056744E0
7.241971667E-1,-2.572849731E0,-2.856509857E0,8.532257080E-1,3.937918030E0
7.342381667E-1,-2.408192139E0,-9.397457886E-1,1.009949799E0,2.775339640E0
7.442791667E-1,-2.281555481E0,6.596781921E-1,9.627978516E-1,2.562742756E0
7.543201667E-1,-1.854792938E0,1.409468994E0,7.502398682E-1,2.447390355E0
7.643611667E-1,-1.357227631E0,1.424886932E0,5.343887329E-1,2.039102972E0
7.744021667E-1,-1.227896576E0,1.478475494E0,4.535568237E-1,1.974673031E0
7.844431667E-1,-1.174008636E0,1.586251373E0,4.302053833E-1,2.019793645E0
7.944841667E-1,-1.135388947E0,1.745520172E0,4.740641785E-1,2.135576170E0
8.045251667E-1,-9.915380859E-1,2.070195007E0,1.683998108E-1,2.301567648E0
8.145661667E-1,-6.948550415E-1,2.927162933E0,-2.917433167E-1,3.022618158E0
8.246071667E-1,-4.589456177E-1,2.874622192E0,9.235794067E-2,2.912492716E0
8.346481667E-1,-3.370989990E-1,2.756817169E0,3.763174438E-1,2.802729287E0
8.446891667E-1,-1.797761536E-1,2.866239624E0,5.264552307E-1,2.919726727E0
8.547301667E-1,-7.020401001E-2,2.935695190E0,7.902067566E-1,3.040996806E0
8.647711667E-1,-4.086502075E-2,2.942580872E0,9.032217407E-1,3.078353724E0
8.748121667E-1,-2.844085693E-3,2.836152191E0,7.646099854E-1,2.937413108E0
8.848531667E-1,4.430786133E-2,2.676584015E0,5.281018066E-1,2.728544794E0
8.948941667E-1,7.768844604E-2,2.486179962E0,3.520678711E-1,2.512185918E0
9.049351667E-1,1.335223389E-1,2.270328827E0,1.556762695E-1,2.279573710E0
9.149761667E-1,2.025288391E-1,2.027982788E0,-3.308120728E-2,2.038339149E0
9.250171667E-1,2.826123047E-1,1.733844452E0,-1.767823792E-1,1.765598569E0
9.350581667E-1,3.707789612E-1,1.334175568E0,-3.153941345E-1,1.420202430E0
9.450991667E-1,2.995271301E-1,5.101391602E-1,-4.971162415E-1,7.727114739E-1
9.551401667E-1,-1.577719116E-1,-3.332070923E-1,-8.349636841E-1,9.127339679E-1
9.651811667E-1,-1.246457977E0,-9.680369568E-1,-2.425855408E0,2.894050362E0
9.752221667E-1,-4.034859467E0,-1.927541656E0,-6.819967804E0,8.155211131E0
9.852631667E-1,-2.438429260E0,-3.348536682E0,-3.666026459E0,5.531580711E0
9.953041667E-1,-2.268532562E0,-5.824687500E0,-1.649420013E0,6.464813287E0
1.005345167E0,-3.243904266E0,-5.716163177E0,-3.489693146E0,7.441464548E0
1.015386167E0,-3.395538940E0,-5.344635773E0,-3.247047729E0,7.116047723E0
1.025427167E0,-3.930376740E0,-7.508984985E0,-2.026934967E0,8.714423801E0
1.035468167E0,-5.890251160E0,-1.513412842E1,-3.792064362E0,1.667682985E1
1.045509167E0,-1.083102676E1,-2.755455002E1,-3.468736725E0,2.980933582E1
1.055550167E0,-1.164727936E1,-3.673825241E1,-2.290237427E0,3.860833452E1
1.065591167E0,-1.342947327E1,-4.337679749E1,-4.316723328E0,4.561284263E1
1.075632167E0,-1.312335983E1,-4.530628510E1,-6.411317596E0,4.760238477E1
1.085673167E0,-7.649243317E0,-4.259153046E1,-1.514490601E1,4.584667456E1
1.095714167E0,-3.985312500E0,-3.351216110E1,-1.220711517E1,3.588817797E1
1.105755167E0,-4.865182800E0,-2.535053329E1,-5.533093872E0,2.639952026E1
1.115796167E0,-5.464985504E0,-1.974064911E1,-3.682791595E0,2.081158927E1
1.125837167E0,-5.641917572E0,-1.630155075E1,-2.553539886E0,1.743824408E1
1.135878167E0,-5.307962036E0,-1.555714874E1,-1.490749969E0,1.650520141E1
1.145919167E0,-4.977748718E0,-1.811532898E1,-9.434880066E-1,1.881045709E1
1.155960167E0,-5.501509552E0,-2.237367371E1,-6.171665955E-1,2.304840075E1
1.166001167E0,-5.734874268E0,-2.478321304E1,-4.053570557E-1,2.544131966E1
1.176042167E0,-5.436844025E0,-2.489667709E1,-2.008822632E-1,2.548419426E1
1.186083167E0,-5.070406036E0,-2.373449387E1,2.315684509E-1,2.427115243E1
1.196124167E0,-4.516258392E0,-2.175515991E1,7.451504517E-1,2.223148267E1
1.206165167E0,-3.710633698E0,-1.913381104E1,1.232536926E0,1.952922616E1
1.216206167E0,-2.841391296E0,-1.657293640E1,1.188977509E0,1.685673138E1
1.226247167E0,-2.109114075E0,-1.435679489E1,5.312452698E-1,1.452061098E1
1.236288167E0,-1.492845612E0,-1.214304840E1,-3.399430847E-1,1.223919008E1
1.246329167E0,-1.027014313E0,-9.807155914E0,-1.276994476E0,9.943127296E0
1.256370167E0,-7.473957825E-1,-7.325765991E0,-2.078278198E0,7.651450064E0
1.266411167E0,-6.587800598E-1,-4.926255798E0,-2.441123657E0,5.537244086E0
1.276452167E0,-7.096742249E-1,-2.835703125E0,-2.250270538E0,3.688979156E0
1.286493167E0,-8.737330627E-1,-1.038540344E0,-1.874551849E0,2.314286099E0
1.296534167E0,-1.044078827E0,4.734654236E-1,-1.456321564E0,1.853413770E0
1.306575167E0,-1.048868866E0,1.681603088E0,-1.334924011E0,2.389547438E0
1.316616167E0,-8.550219727E-1,2.643053741E0,-1.850751343E0,3.337974863E0
1.326657167E0,-9.812095642E-1,3.319197693E0,-2.401755524E0,4.212870177E0
1.336698167E0,-1.385219421E0,3.336411896E0,-2.291734314E0,4.278144849E0
1.346739167E0,-1.833686829E0,3.033741302E0,-1.720821533E0,3.940459418E0
1.356780167E0,-2.385140076E0,2.996319122E0,-8.870553589E-1,3.931117993E0
1.366821167E0,-3.039279785E0,3.434308319E0,1.445993042E-1,4.588311694E0
1.376862167E0,-3.387006683E0,3.711831207E0,7.949967957E-1,5.087388828E0
1.386903167E0,-2.957998810E0,3.363206177E0,1.036145325E0,4.597228500E0
1.396945167E0,-2.511926422E0,2.895428925E0,7.629634094E-1,3.908375132E0
1.406985167E0,-2.192490692E0,2.394869843E0,4.469705200E-1,3.277529503E0
1.417027167E0,-1.900897064E0,1.787582703E0,2.484832764E-1,2.621183989E0
1.427068167E0,-1.589843903E0,1.322350159E0,2.492317200E-1,2.082865821E0
1.437109167E0,-1.330133972E0,1.106798401E0,3.201841736E-1,1.759766175E0
1.447150167E0,-1.138083344E0,8.783734131E-1,4.647834778E-1,1.510892859E0
1.457191167E0,-9.298663330E-1,6.863227844E-1,6.556365967E-1,1.328739895E0
1.467232167E0,-4.260140991E-1,4.902305603E-1,7.511380005E-1,9.929865612E-1
1.477273167E0,3.709286499E-1,2.224374390E-1,5.077441406E-1,6.669861992E-1
1.487314167E0,7.078779602E-1,1.038839722E-1,3.270698547E-1,7.866751401E-1
1.497355167E0,9.247769165E-1,1.184037781E-1,-6.840774536E-2,9.348322949E-1
1.507396167E0,1.076411591E0,-8.173004150E-2,-6.661148071E-1,1.268483602E0
1.517437167E0,1.059197388E0,-5.872288513E-1,-1.293011169E0,1.771613591E0
1.527478167E0,7.268884277E-1,-1.159189453E0,-1.947300568E0,2.379929931E0
1.537519167E0,-2.477348328E-1,-1.482068024E0,-2.520159302E0,2.934126971E0
1.547560167E0,-1.222807159E0,-1.844763794E0,-2.455793152E0,3.305953843E0
1.557601167E0,-1.416055298E0,-1.980232086E0,-1.802701263E0,3.029234815E0
1.567642167E0,-1.349593506E0,-2.029479675E0,-1.709445190E0,2.976977199E0
1.577683167E0,-1.985770569E0,-2.771636353E0,-1.792672119E0,3.852132675E0
1.587724167E0,-3.282823334E0,-4.169130249E0,-1.481618958E0,5.509425633E0
1.597765167E0,-5.417085114E0,-7.733667755E0,-1.449585571E0,9.552786316E0
1.607806167E0,-6.796766052E0,-1.622446106E1,-1.726060638E0,1.767507994E1
1.617847125E0,-9.310039673E0,-3.136697205E1,-1.603764954E0,3.275875205E1
1.627888125E0,-1.201611237E1,-4.976356613E1,-5.681285706E0,5.150802343E1
1.637929125E0,-7.514523468E0,-5.419854355E1,-1.140418488E1,5.589280471E1
1.647970125E0,-3.725303192E0,-4.536211899E1,-7.362140350E0,4.610640773E1
1.658011125E0,-2.810256042E0,-3.478990402E1,-3.398383026E0,3.506827581E1
1.668052125E0,-2.810705109E0,-2.492182480E1,-3.814218292E0,2.536820206E1
1.678093125E0,-4.600233765E0,-1.857367584E1,-6.745422821E0,2.028901954E1
1.688134125E0,-4.838388519E0,-1.921194855E1,-9.081165619E0,2.179395649E1
1.698175125E0,-2.171683960E0,-2.368359970E1,-6.516249390E0,2.465949335E1
1.708216125E0,-3.757186890E-1,-2.491014908E1,-3.425027618E0,2.514731608E1
1.718257125E0,-2.320175171E-1,-2.465882172E1,-1.321601715E0,2.469530222E1
1.728298125E0,-1.282832336E0,-2.356579468E1,-1.095721436E-1,2.360093947E1
1.738339125E0,-2.211351471E0,-2.205378891E1,5.201683044E-1,2.217048163E1
1.748380125E0,-2.223326569E0,-2.053729248E1,9.708810425E-1,2.068009123E1
1.758421125E0,-1.647773438E0,-1.930445618E1,1.460213470E0,1.942960136E1
1.768462125E0,-1.925745392E0,-1.861394211E1,2.136507111E0,1.883486126E1
1.778503125E0,-2.113155670E0,-1.787762329E1,2.035167847E0,1.811675328E1
1.788544125E0,-1.350791016E0,-1.647638718E1,1.380728760E0,1.658922490E1
1.798585125E0,-5.348377991E-1,-1.454420517E1,5.697152710E-1,1.456518215E1
1.808626125E0,7.484436035E-4,-1.209335175E1,-4.330494690E-1,1.210110279E1
1.818667125E0,2.797682190E-1,-9.368717651E0,-1.625469818E0,9.512796267E0
1.828708125E0,3.525169373E-1,-6.632108459E0,-2.508184204E0,7.099304108E0
1.838749125E0,1.206491089E-1,-4.308191071E0,-2.544708252E0,5.005058101E0
1.848790125E0,-2.778222656E-1,-2.486928406E0,-1.865720215E0,3.121363488E0
1.858831125E0,-6.852749634E-1,-9.725276184E-1,-1.165177002E0,1.665247486E0
1.868872125E0,-1.061442719E0,4.430786133E-1,-7.108717346E-1,1.352153070E0
1.878913125E0,-1.263223114E0,1.523082733E0,-4.743635559E-1,2.034830320E0
1.888954125E0,-1.204844513E0,1.967209167E0,-4.102967834E-1,2.343054771E0
1.898995125E0,-1.597028961E0,2.443069611E0,-3.278182983E-1,2.937099839E0
1.909036125E0,-2.386786652E0,3.189267883E0,-8.247848511E-2,3.984342211E0
1.919077125E0,-3.160228271E0,3.733835449E0,4.161346436E-2,4.891860747E0
1.929119125E0,-3.926634521E0,4.185296631E0,-4.981640625E-1,5.760497720E0
1.939160125E0,-5.332810364E0,5.188061371E0,-1.484313354E0,7.586701081E0
1.949201125E0,-5.946683807E0,5.781427460E0,-3.625460815E-1,8.301770380E0
1.959242125E0,-4.947212219E0,5.148543549E0,4.552033997E-1,7.154692135E0
1.969283125E0,-3.801195374E0,3.959865417E0,2.652484131E-1,5.495450583E0
1.979324125E0,-3.007246399E0,2.940634918E0,-9.131011963E-3,4.206060865E0
1.989365125E0,-2.212099915E0,2.132615204E0,-1.857637024E-1,3.078301771E0
1.999406125E0,-1.435814209E0,1.297352142E0,-4.328997803E-1,1.982949128E0
2.009447125E0,-8.348139954E-1,6.234535217E-1,-7.128176880E-1,1.262425347E0
2.019488125E0,-6.057902527E-1,2.495310974E-1,-9.280700684E-1,1.136028895E0
2.029529125E0,-4.921765137E-1,1.402583313E-1,-1.012344818E0,1.134350982E0
2.039570125E0,-3.429368591E-1,8.771759033E-2,-1.048419800E0,1.106564115E0
2.049611125E0,-3.384461975E-1,-1.511856079E-1,-1.004411316E0,1.070628324E0
2.059652125E0,-2.993774414E-1,-5.833369446E-1,-7.801776123E-1,1.019110372E0
2.069693125E0,-3.050656128E-1,-8.973838806E-1,-4.906796265E-1,1.067300030E0
2.079734125E0,-3.977229309E-1,-9.596543884E-1,-2.679428101E-1,1.072806331E0
2.089775125E0,-5.433700562E-1,-9.852511597E-1,-2.013313293E-1,1.143024571E0
2.099816125E0,-7.234455872E-1,-1.172811127E0,-2.797682190E-1,1.406104446E0
2.109857125E0,-8.481362915E-1,-1.570833435E0,-3.926335144E-1,1.827844065E0
2.119898125E0,-1.058898010E0,-2.687211914E0,-4.864883423E-1,2.929000474E0
2.129939125E0,-1.518292694E0,-6.151158600E0,-1.541943512E0,6.520702004E0
2.139980125E0,-2.639161835E0,-1.329310684E1,-3.332969055E0,1.395638017E1
2.150021125E0,-2.708617401E0,-2.265987854E1,-4.711751862E0,2.330251723E1
2.160062125E0,-2.282752991E0,-3.115950348E1,-4.951852570E0,3.163299641E1
2.170103125E0,-1.970801697E0,-3.883269699E1,-4.881947937E0,3.918795517E1
2.180144125E0,-2.759511566E0,-4.511737793E1,-5.604495392E0,4.554781075E1
2.190185125E0,-3.941004639E0,-4.475348465E1,-7.246131592E0,4.550727776E1
2.200226125E0,-3.472179565E0,-3.416405548E1,-7.822133789E0,3.521966063E1
2.210267125E0,-2.219135284E0,-2.491778320E1,-5.303621063E0,2.557242416E1
2.220308125E0,-1.233884125E0,-1.968182144E1,-3.589685211E0,2.004451060E1
2.230349125E0,-1.281335449E-1,-1.668325699E1,-2.973566437E0,1.694666868E1
2.240390125E0,1.036444702E0,-1.641351791E1,-2.484832764E0,1.663286451E1
2.250431125E0,1.751058655E0,-1.980516495E1,-1.992207184E0,1.998198325E1
2.260472125E0,1.707948303E0,-2.447215988E1,-1.412313080E0,2.457230809E1
2.270513125E0,1.401685181E0,-2.740201721E1,-6.201603699E-1,2.744485138E1
2.280554125E0,1.037342834E0,-2.734797958E1,1.760339355E-1,2.736821250E1
2.290595125E0,4.028123474E-1,-2.435001389E1,5.034031677E-1,2.435854776E1
2.300637125E0,-4.150868225E-1,-2.077664474E1,4.135899353E-1,2.078490608E1
2.310678125E0,-9.243278503E-1,-1.825723389E1,-9.714797974E-2,1.828087550E1
2.320719125E0,-9.213340759E-1,-1.654958496E1,-9.683363342E-1,1.660347235E1
2.330760125E0,-7.867639160E-1,-1.485031860E1,-2.094893646E0,1.501797388E1
2.340801125E0,-6.480024719E-1,-1.290122177E1,-3.247796173E0,1.331951990E1
2.350842125E0,-4.846920776E-1,-1.091081085E1,-4.072730713E0,1.165623676E1
2.360883125E0,-3.734733582E-1,-9.043743439E0,-4.050277405E0,9.916326174E0
2.370924125E0,-4.414320374E-1,-7.652835846E0,-3.192561035E0,8.303806639E0
2.380965125E0,-7.779322815E-1,-6.540049896E0,-1.966311035E0,6.873413298E0
2.391006125E0,-1.171912994E0,-5.257516937E0,-1.076710968E0,5.493102122E0
2.401047125E0,-1.528321838E0,-3.822750549E0,-5.551954651E-1,4.154206472E0
2.411088125E0,-1.876497803E0,-2.321073303E0,-1.251397705E-1,2.987354222E0
2.421129125E0,-2.266736298E0,-9.584568787E-1,2.600093079E-1,2.474739960E0
2.431170125E0,-2.627785492E0,2.261796570E-1,6.107299805E-1,2.707287376E0
2.441211125E0,-2.978955231E0,1.145867157E0,9.291178894E-1,3.324221091E0
2.451252125E0,-3.397035828E0,2.078876953E0,1.253193970E0,4.175173880E0
2.461293125E0,-3.654051361E0,2.882406006E0,1.690135345E0,4.951455667E0
2.471334125E0,-3.979923706E0,3.658092957E0,2.309846649E0,5.878505620E0
2.481375125E0,-4.372706909E0,4.273912354E0,2.939138031E0,6.784204072E0
2.491416125E0,-4.227658539E0,4.561913452E0,2.751128998E0,6.800945657E0
2.501457125E0,-3.232378235E0,4.298461304E0,1.694326630E0,5.638774810E0
2.511498125E0,-2.188898163E0,3.633993073E0,8.183482361E-1,4.320517869E0
2.521539125E0,-1.440155182E0,2.816393280E0,1.908531189E-1,3.168997155E0
2.531580125E0,-9.000782776E-1,2.015858002E0,-2.911445618E-1,2.226789066E0
2.541621125E0,-4.921765137E-1,1.369352417E0,-7.167095947E-1,1.622046980E0
2.551662125E0,-1.725910950E-1,8.461903381E-1,-1.200503540E0,1.478862578E0
2.561703125E0,9.475296021E-2,3.969744873E-1,-1.788181458E0,1.834164603E0
2.571744125E0,2.995271301E-1,7.334747314E-3,-2.501897278E0,2.519773857E0
2.581785125E0,3.827540588E-1,-3.992198181E-1,-3.149899750E0,3.198084672E0
2.591826125E0,3.403921509E-1,-7.394622803E-1,-3.411256256E0,3.507041563E0
2.601868125E0,2.601589966E-1,-9.398954773E-1,-3.164569244E0,3.311432426E0
2.611909125E0,1.890568542E-1,-1.036594391E0,-2.315834198E0,2.544279556E0
2.621949875E0,1.040336609E-1,-9.972262573E-1,-1.395398254E0,1.718260603E0
2.631990875E0,-2.844085693E-2,-9.985734558E-1,-1.126108246E0,1.505349664E0
2.642031875E0,-3.176394653E-1,-1.234333191E0,-1.436412964E0,1.920352952E0
2.652072875E0,-7.689509583E-1,-1.929188232E0,-1.789378967E0,2.741337247E0
2.662113875E0,-1.006656647E0,-3.490591278E0,-1.748663635E0,4.031799795E0
2.672154875E0,-1.067280579E0,-4.526437225E0,-1.161285095E0,4.793360498E0
2.682195875E0,-1.123713226E0,-4.443809052E0,-7.997868347E-1,4.652937705E0
2.692236875E0,-1.326391754E0,-6.203549652E0,-6.749464417E-1,6.379568643E0
2.702277875E0,-2.156266022E0,-1.058688446E1,-6.041436768E-1,1.082111803E1
2.712318875E0,-3.830534363E0,-1.854927658E1,-9.355545044E-2,1.894089248E1
2.722359875E0,-1.206521027E1,-3.336097549E1,2.237097931E0,3.554614736E1
2.732400875E0,-1.432640808E1,-4.382017548E1,-2.513572998E0,4.617111431E1
2.742441875E0,-5.749543762E0,-4.653642700E1,-1.229947311E1,4.847652350E1
2.752482875E0,-2.316432953E0,-4.489553925E1,-8.511150970E0,4.575385226E1
2.762523875E0,-1.255588989E0,-4.093866760E1,-5.231920166E0,4.129072532E1
2.772564875E0,-2.384541321E-1,-3.486819122E1,-7.342231750E0,3.563363561E1
2.782605875E0,3.715274048E-1,-2.396366730E1,-8.609047394E0,2.546588070E1
2.792646875E0,4.653822327E-1,-1.811158676E1,-6.073919220E0,1.910860148E1
2.802687875E0,-1.242416382E-1,-1.591041412E1,-3.500021667E0,1.629131257E1
2.812728875E0,-2.047891388E0,-1.640782974E1,-2.078577576E0,1.666526990E1
2.822769875E0,-4.691394196E0,-2.147868484E1,-1.248403931E-1,2.198541942E1
2.832810875E0,-6.569239197E0,-2.649640045E1,7.590715027E-1,2.730916202E1
2.842852875E0,-6.814728699E0,-2.635180115E1,7.484436035E-3,2.721870693E1
2.852893875E0,-5.204227753E0,-2.219374786E1,-1.085542603E0,2.282158701E1
2.862934875E0,-2.797831879E0,-1.803389832E1,-1.534309387E0,1.831402351E1
2.872975875E0,-8.424481201E-1,-1.544248718E1,-1.810335388E0,1.557104503E1
2.883016875E0,5.318440247E-1,-1.366014359E1,-2.120490417E0,1.383397486E1
2.893057875E0,1.336271210E0,-1.216430420E1,-2.312990112E0,1.245414954E1
2.903098875E0,1.519789581E0,-1.058733353E1,-2.173031158E0,1.091436924E1
2.913139875E0,1.304088135E0,-8.880133667E0,-1.832040253E0,9.160447112E0
2.923180875E0,9.821076965E-1,-7.250322876E0,-1.286873932E0,7.428846603E0
2.933221875E0,6.589297485E-1,-5.502407684E0,-7.665559387E-1,5.594487174E0
2.943262875E0,4.426295471E-1,-3.847898254E0,-3.312611389E-1,3.887412486E0
2.953303875E0,2.252815247E-1,-2.402503967E0,1.615141296E-1,2.418442452E0
2.963344875E0,-6.316864014E-2,-1.245410156E0,5.560935974E-1,1.365385229E0
2.973385875E0,-3.317102051E-1,-1.481918335E-1,8.378077698E-1,9.131891035E-1
2.983426875E0,-5.162763977E-1,8.936416626E-1,1.161584473E0,1.553838868E0
2.993467875E0,-5.054988098E-1,1.553319855E0,1.476679230E0,2.202024788E0
3.003508875E0,-6.256988525E-1,1.871857452E0,1.976340179E0,2.793075345E0
3.013549875E0,-9.101074219E-1,2.193388824E0,2.737207947E0,3.623749081E0
3.023590875E0,-1.095122681E0,2.583178253E0,3.297792206E0,4.329842608E0
3.033631875E0,-1.179247742E0,2.658920746E0,3.616030426E0,4.640706930E0
3.043672875E0,-1.156495056E0,2.750380554E0,3.729943542E0,4.776458190E0
3.053713875E0,-1.061143341E0,2.885100403E0,3.272195435E0,4.489665075E0
3.063755875E0,-8.710386658E-1,3.739972687E0,1.925745392E0,4.295881675E0
3.073796875E0,-5.908213806E-1,4.992867279E0,2.519261169E-1,5.034010363E0
3.083837875E0,-4.113446045E-1,5.566324768E0,-5.474116516E-1,5.608282743E0
3.093878875E0,-4.192781067E-1,5.183421021E0,-3.838018799E-1,5.214494366E0
3.103919875E0,-4.421804810E-1,4.174069977E0,1.493893433E-1,4.200083443E0
3.113960875E0,-2.308200073E-1,2.846929779E0,2.017803955E-1,2.863390014E0
3.124001875E0,1.397793274E0,1.521885223E0,-2.716251526E0,3.412914154E0
3.134042875E0,2.317780151E0,-2.164498901E-1,-6.295757904E0,6.712341095E0
3.144083875E0,1.142274628E0,-1.775308228E0,-6.155649261E0,6.507574699E0
3.154124875E0,9.205856323E-2,-2.354753265E0,-3.793710938E0,4.466047514E0
3.164165875E0,-1.022373962E-1,-2.238445129E0,-1.857337646E0,2.910462543E0
3.174206875E0,9.131011963E-3,-1.991608429E0,-8.358618164E-1,2.159919555E0
3.184247875E0,5.448669434E-2,-1.967358856E0,-6.186634827E-1,2.063059421E0
3.194288875E0,-1.242416382E-2,-2.179467773E0,-5.180726624E-1,2.240230662E0
3.204329875E0,-5.053491211E-1,-3.345093842E0,-3.191363525E-1,3.398069828E0
3.214370875E0,-1.701511688E0,-1.076636124E1,3.155438232E-1,1.090455154E1
3.224411875E0,-6.647676086E-1,-2.239657608E1,2.008373566E0,2.249626859E1
3.234452875E0,1.498384094E0,-3.480262756E1,2.502496033E0,3.492464068E1
3.244493875E0,2.444416809E0,-4.291336121E1,2.789000244E0,4.307331269E1
3.254534875E0,2.163151703E0,-4.147365509E1,2.961441650E0,4.163548281E1
3.264575875E0,2.451302490E0,-3.539195206E1,-6.569837952E-1,3.548282376E1
3.274617875E0,-4.462220764E-1,-3.440714996E1,-4.438869324E0,3.469516744E1
3.284658875E0,-6.857988739E0,-2.927357529E1,-3.544778595E0,3.027440627E1
3.294699875E0,-5.637726288E0,-2.032907547E1,-4.933141479E0,2.166543681E1
3.304740875E0,-3.706891479E0,-1.267279678E1,-5.212011566E0,1.419527694E1
3.314781875E0,-2.418370972E0,-8.052654419E0,-6.284231873E0,1.049692010E1
3.324822875E0,-5.355862427E-1,-6.718778229E0,-8.187074890E0,1.060457584E1
3.334863875E0,6.483018494E-1,-8.333919525E0,-5.642815704E0,1.008542904E1
3.344904875E0,1.430126038E0,-1.146929947E1,-1.593286743E0,1.166741846E1
3.354945875E0,1.560654602E0,-1.356509125E1,1.374890900E0,1.372361717E1
3.364986875E0,1.575773163E0,-1.382554962E1,3.008294220E0,1.423652758E1
3.375027875E0,1.761387177E0,-1.335822144E1,3.128643951E0,1.383231643E1
3.385068875E0,2.020498352E0,-1.240365646E1,2.871029663E0,1.289092388E1
3.395109875E0,2.316432953E0,-1.103071152E1,2.707868958E0,1.159202366E1
3.405150875E0,2.454445953E0,-9.596543884E0,2.611319733E0,1.024387379E1
3.415191875E0,2.620151367E0,-8.477171631E0,3.884272614E0,9.685824992E0
3.425232875E0,2.736609192E0,-7.356601868E0,5.658083954E0,9.675873859E0
3.435273875E0,2.705174561E0,-5.828579407E0,6.383774872E0,9.057752973E0
3.445314875E0,2.552492065E0,-3.970493317E0,5.511688385E0,7.256634328E0
3.455356875E0,2.119442596E0,-1.058149567E0,1.829794922E0,2.993303673E0
3.465397875E0,1.496887207E0,1.441502380E0,-4.192781067E-1,2.119998716E0
3.475438875E0,1.422491913E0,2.247127075E0,-8.674461365E-1,2.797414187E0
3.485479875E0,1.875300293E0,2.343526611E0,-1.872007141E0,3.537411328E0
3.495520875E0,2.996319122E0,1.864073639E0,-5.584287415E0,6.605828089E0
3.505561875E0,4.385580139E0,-8.581654358E-1,-8.926237793E0,9.982358549E0
3.515602875E0,4.054468689E0,-4.520749054E0,-5.622308350E0,8.275641337E0
3.525643875E0,3.282074890E0,-6.066584473E0,-2.796933746E0,7.443003502E0
3.535684875E0,2.897374878E0,-7.945028229E0,-1.395248566E0,8.571171058E0
3.545725875E0,2.736609192E0,-1.061727127E1,-5.403762817E-2,1.096441513E1
3.555766875E0,2.879861298E0,-1.263806900E1,1.745969238E0,1.307909774E1
3.565807875E0,3.499273224E0,-1.421459061E1,2.823877716E0,1.490884920E1
3.575848875E0,3.522175598E0,-1.522244476E1,2.724484406E0,1.586037076E1
3.585889875E0,2.482587433E0,-1.385758301E1,1.633253632E0,1.417262730E1
3.595930875E0,1.238225098E0,-1.000564316E1,1.124611359E0,1.014449837E1
3.605971875E0,4.867877197E-1,-6.775659943E0,1.185235291E0,6.895745981E0
3.616012875E0,-2.776725769E-1,-4.884792023E0,-5.580395508E-1,4.924398776E0
3.626055042E0,-2.035018158E0,-3.803291016E0,-9.089398499E0,1.006098835E1
3.636096042E0,-6.732998657E-1,-6.785988464E0,-1.526974640E1,1.672328099E1
3.646137042E0,2.522254944E0,-1.204081100E1,-1.206356369E1,1.722998748E1
3.656178042E0,3.837569733E0,-1.639076523E1,-8.309520264E0,1.877317909E1
3.666219042E0,5.003794556E0,-2.035886353E1,-4.377197571E0,2.141684250E1
3.676260042E0,6.074068909E0,-2.371503433E1,-1.753603363E0,2.454327385E1
3.686301042E0,6.897506561E0,-2.831916000E1,1.122665405E-2,2.914705038E1
3.696342042E0,7.370223541E0,-3.234144562E1,2.256108398E0,3.324724537E1
3.706383042E0,7.531587982E0,-3.400568481E1,3.168311462E0,3.497355594E1
3.716424042E0,6.850354614E0,-3.219699600E1,2.338437195E0,3.300063936E1
3.726465042E0,4.755760345E0,-2.611394577E1,1.103804626E0,2.656640369E1
3.736506042E0,2.672841797E0,-2.042876816E1,5.120851135E-1,2.060924266E1
3.746547042E0,1.515298920E0,-1.658086990E1,1.631607056E-1,1.665076572E1
3.756588042E0,1.480122070E0,-1.357631790E1,-8.996292114E-1,1.368636189E1
3.766629042E0,2.447260895E0,-1.157153687E1,-2.328707428E0,1.205456053E1
3.776670042E0,3.335513763E0,-1.004995102E1,-2.946622467E0,1.099134894E1
3.786711042E0,3.734733582E0,-8.554560699E0,-2.980901184E0,9.798699687E0
3.796753042E0,3.706741791E0,-7.499404907E0,-2.317630463E0,8.680577148E0
3.806794042E0,3.191363525E0,-6.797963562E0,-9.443861389E-1,7.568948072E0
3.816835042E0,2.475252686E0,-5.423072662E0,-3.221301270E-1,5.969954839E0
3.826876042E0,1.814526672E0,-3.479214935E0,-3.890409851E-1,3.943196229E0
3.836917042E0,8.402027893E-1,-1.642534332E0,-2.712359619E-1,1.864786504E0
3.846958042E0,-3.077600098E-1,-2.965333557E-1,2.055226135E-1,4.742233644E-1
3.856999042E0,-1.058748322E0,3.140469360E-1,7.917036438E-1,1.358811299E0
3.867040042E0,-1.355880432E0,5.683680725E-1,1.093326416E0,1.832161746E0
3.877081042E0,-1.398990784E0,8.223898315E-1,1.135987701E0,1.980900882E0
3.887122042E0,-1.310225372E0,1.139430542E0,9.271719360E-1,1.968410599E0
3.897163042E0,-1.173709259E0,1.316961365E0,7.039860535E-1,1.899362268E0
3.907204042E0,-1.029109955E0,1.337169342E0,5.601351929E-1,1.777875300E0
3.917245042E0,-9.530680847E-1,1.393751678E0,4.984634399E-1,1.760496611E0
3.927286042E0,-8.960366821E-1,1.440753937E0,4.430786133E-1,1.753559893E0
3.937327042E0,-8.556207275E-1,1.433568878E0,4.631369019E-1,1.732542163E0
3.947369042E0,-8.202941895E-1,1.365310822E0,3.017724609E-1,1.621117767E0
3.957410042E0,-6.819818115E-1,1.538051605E0,-2.052831116E0,2.654207513E0
3.967451042E0,-7.432044983E-1,2.773731995E0,-8.995693359E0,9.442904274E0
3.977492042E0,-7.258406067E-1,3.426524506E0,-7.376510468E0,8.165832563E0
3.987533042E0,-5.319937134E-1,3.241958313E0,-2.953807526E0,4.417950873E0
3.997574042E0,-3.728746033E-1,3.091371460E0,-7.418572998E-1,3.200931931E0
4.007615042E0,-1.323248291E-1,2.840942230E0,7.511380005E-1,2.941542268E0
4.017656042E0,1.933978271E-1,2.285148010E0,1.461111603E0,2.719218870E0
4.027697042E0,3.882925415E-1,1.401834869E0,1.580413513E0,2.147933652E0
4.037738042E0,3.423381042E-1,3.900888062E-1,2.449057159E0,2.503446749E0
4.047779042E0,-7.933502197E-3,-7.610174561E-1,4.373455353E0,4.439180356E0
4.057820042E0,-1.097218323E-1,-1.028511200E0,2.539469147E0,2.742038971E0
4.067861042E0,-3.011737061E-1,-1.127156067E0,-3.674858093E-1,1.223205715E0
4.077902042E0,-8.758287048E-1,-2.449655914E0,-5.450316010E0,6.039357137E0
4.087944042E0,-4.258644104E-1,-6.409970398E0,-1.369367386E1,1.512566642E1
4.097985042E0,4.646337891E-1,-9.421557770E0,-1.318652847E1,1.621314801E1
4.108026042E0,2.522254944E-1,-6.217770081E0,-2.900518341E0,6.865660137E0
4.118067042E0,-1.293310547E-1,-3.254232788E0,2.470163269E0,4.087598823E0
4.128108042E0,-2.168989563E-1,-1.057206528E1,3.524420929E0,1.114617209E1
4.138149042E0,1.579515381E0,-2.521566376E1,5.704487457E0,2.590107613E1
4.148190042E0,3.388054504E0,-4.136453201E1,7.544760590E0,4.218325301E1
4.158231042E0,4.016148376E0,-4.925088226E1,7.120093689E0,4.992468914E1
4.168272042E0,1.210083618E0,-4.761882614E1,2.105371857E0,4.768070360E1
4.178313042E0,-2.527194672E0,-4.050531876E1,-8.930429077E-1,4.059390454E1
4.188354042E0,-3.496878204E0,-3.329211868E1,-2.823728027E0,3.359414776E1
4.198395042E0,-3.303181000E0,-2.501552994E1,-1.368574036E1,2.870517779E1
4.208436042E0,1.826202393E-2,-1.506946289E1,-2.684337891E1,3.078402242E1
4.218477042E0,2.420915680E0,-1.135254227E1,-1.786894135E1,2.130821704E1
4.228518042E0,2.793191528E0,-1.104104004E1,-4.410278778E0,1.221298665E1
4.238560042E0,1.807191925E0,-1.009500732E1,1.157093811E0,1.032056111E1
4.248601042E0,9.422904968E-1,-9.247619476E0,1.901046753E0,9.487905781E0
4.258642042E0,1.986968079E0,-8.187224579E0,-2.534230042E-1,8.428695728E0
4.268683042E0,2.492466888E0,-7.849975891E0,-1.385069733E0,8.351822008E0
4.278724042E0,2.366279297E0,-9.351353760E0,-2.088157654E-1,9.648352133E0
4.288765042E0,1.494043121E0,-1.161868881E1,1.812880096E0,1.185380229E1
4.298806042E0,6.994953918E-1,-1.175460617E1,2.800825653E0,1.210391194E1
4.308847042E0,-7.394622803E-2,-1.067250641E1,2.996319122E0,1.108538630E1
4.318888042E0,-4.929249573E-1,-9.315877533E0,2.796634369E0,9.739081734E0
4.328929042E0,-2.869532776E-1,-8.194259949E0,2.185904388E0,8.485659449E0
4.338970042E0,5.104385376E-1,-7.402107239E0,9.852511597E-1,7.484815223E0
4.349011042E0,1.477427673E0,-6.687942352E0,-1.067430267E0,6.931866474E0
4.359052042E0,2.426154785E0,-5.694009247E0,-3.777993622E0,7.251289827E0
4.369094042E0,3.178639984E0,-5.194048920E0,-5.327720947E0,8.091137548E0
4.379135042E0,3.551065521E0,-6.003116455E0,-4.943170624E0,8.548825026E0
4.389176042E0,3.447630615E0,-7.045548706E0,-4.179608459E0,8.887915408E0
4.399217042E0,2.844983826E0,-7.723039856E0,-3.355272675E0,8.888033095E0
4.409258042E0,1.505868530E0,-8.412655792E0,-2.247875519E0,8.837044860E0
4.419299042E0,-2.401007080E-1,-8.818910980E0,-1.353635101E0,8.925422523E0
4.429340042E0,-1.068927155E0,-8.819958801E0,-8.668473816E-1,8.926684877E0
4.439381042E0,-1.470092926E0,-8.875643005E0,-6.102809143E-1,9.017242082E0
4.449422042E0,-1.539847870E0,-9.052874451E0,-6.153703308E-1,9.203496505E0
4.459463042E0,-1.440005493E0,-9.135053558E0,-8.993298340E-1,9.291480694E0
4.469504042E0,-1.275497589E0,-8.966803436E0,-1.091829529E0,9.122639403E0
4.479545042E0,-6.620732117E-1,-8.848399658E0,-1.144819336E0,8.946682556E0
4.489586042E0,3.369493103E-1,-9.212442627E0,-1.256636810E0,9.303857806E0
4.499628042E0,9.728269958E-1,-9.783654785E0,-1.327439575E0,9.921108262E0
4.509669042E0,1.451980591E0,-1.031145721E1,-1.438358917E0,1.051205374E1
4.519710042E0,1.695823517E0,-1.064032333E1,-1.448088684E0,1.087148835E1
4.529751042E0,1.730251923E0,-1.080063995E1,-1.259031830E0,1.101057475E1
4.539792042E0,1.692230988E0,-1.069286407E1,-8.443940735E-1,1.085882080E1
4.549833042E0,1.618434448E0,-1.016236725E1,-4.159849548E-1,1.029883885E1
4.559874042E0,1.503922577E0,-9.554930420E0,-1.752854919E-1,9.674151304E0
4.569915042E0,1.412313080E0,-9.065148926E0,-1.172062683E-1,9.175254252E0
4.579956042E0,1.342258759E0,-8.795709229E0,-1.540296936E-1,8.898869847E0
4.589997042E0,1.282233582E0,-8.697513428E0,-2.320175171E-1,8.794583271E0
4.600038042E0,1.258433075E0,-8.735384674E0,-3.381468201E-1,8.832040675E0
4.610079042E0,1.309027863E0,-8.902586975E0,-3.897894287E-1,9.006749946E0
4.620120750E0,1.403481445E0,-9.145831146E0,-3.963757324E-1,9.261376855E0
4.630161750E0,1.508862305E0,-9.286239166E0,-3.914360046E-1,9.416162990E0
4.640202750E0,1.597028961E0,-9.336534576E0,-4.966671753E-1,9.485149323E0
4.650243750E0,1.542991333E0,-9.260792084E0,-7.361691284E-1,9.417273345E0
4.660284750E0,1.241368561E0,-8.904233551E0,-9.214837646E-1,9.037450048E0
4.670325750E0,8.913963318E-1,-8.473728790E0,-1.066981201E0,8.587031845E0
4.680366750E0,6.012995911E-1,-8.129295044E0,-1.271306305E0,8.250043565E0
4.690407750E0,3.739224243E-1,-7.904312897E0,-1.522034912E0,8.058198969E0
4.700448750E0,1.601669312E-1,-7.714956665E0,-1.625469818E0,7.885959797E0
4.710489750E0,-3.817062378E-2,-7.260202332E0,-1.548829193E0,7.423669360E0
4.720530750E0,-2.598596191E-1,-6.576573944E0,-1.576371918E0,6.767850492E0
4.730571750E0,-5.069956970E-1,-5.863905945E0,-1.838177490E0,6.166144180E0
4.740612750E0,-7.506889343E-1,-5.277874603E0,-2.001188507E0,5.694229504E0
4.750654750E0,-1.002914429E0,-4.953499146E0,-1.717528381E0,5.337873629E0
4.760695750E0,-1.300794983E0,-4.810696106E0,-1.228345642E0,5.132611190E0
4.770736750E0,-1.685944061E0,-4.784650269E0,-1.117875366E0,5.194702196E0
4.780777750E0,-2.229613495E0,-4.748575287E0,-1.767973480E0,5.535871550E0
4.790818750E0,-2.961741028E0,-5.096152496E0,-3.416794739E0,6.813014492E0
4.800859750E0,-3.509002991E0,-6.192472687E0,-7.076983337E0,1.003710681E1
4.810900750E0,-3.478765869E0,-7.222181396E0,-1.085602478E1,1.349499871E1
4.820941750E0,-3.062481537E0,-7.274422760E0,-8.813222809E0,1.183084595E1
4.830982750E0,-2.421813812E0,-7.048392792E0,-4.224814453E0,8.567034507E0
4.841023750E0,-1.120569763E0,-7.523804169E0,-1.145418091E0,7.692547586E0
4.851064750E0,-1.347198486E-2,-9.010662231E0,5.358856201E-1,9.026593418E0
4.861105750E0,4.128414917E-1,-1.101005447E1,1.267115021E0,1.109041560E1
4.871147750E0,1.308279419E-1,-1.317290680E1,1.592687988E-1,1.317451920E1
4.881188750E0,7.812254333E-1,-1.477816864E1,-2.549947357E0,1.501688427E1
4.891229750E0,1.577719116E0,-1.555894501E1,-4.004472656E0,1.614328866E1
4.901270750E0,1.644629974E0,-1.686033875E1,-3.556604004E0,1.730968695E1
4.911311750E0,1.345551910E0,-1.864013763E1,-2.510728912E0,1.885653734E1
4.921352750E0,1.357227631E0,-2.091884903E1,-2.139351196E0,2.107171410E1
4.931393750E0,1.934577026E0,-2.404180481E1,-2.777324524E0,2.427888997E1
4.941434750E0,2.711611176E0,-2.807082642E1,-4.327500916E0,2.853158592E1
4.951475750E0,3.782933350E0,-3.085653351E1,-4.783303070E0,3.145339780E1
4.961516750E0,4.604275360E0,-3.093482071E1,-3.721111908E0,3.149617687E1
4.971557750E0,5.386997681E0,-2.770079590E1,-2.371219025E0,2.831918991E1
4.981599750E0,5.822142792E0,-2.470776993E1,-1.408421173E0,2.542351061E1
4.991640750E0,3.720812531E0,-2.325863342E1,-8.193960571E-1,2.356862076E1
5.001681750E0,8.584648132E-1,-2.148706741E1,-4.340972900E-1,2.150859057E1
5.011722750E0,1.495390320E-1,-2.003942780E1,-4.638853455E-1,2.004535402E1
5.021763750E0,7.105723572E-1,-1.960772552E1,-8.611592102E-1,1.963948595E1
5.031804750E0,2.325713654E0,-1.938738373E1,-1.604363708E0,1.959218147E1
5.041845750E0,3.529061279E0,-1.788016800E1,-2.644251251E0,1.841593728E1
5.051886750E0,3.210972748E0,-1.474059677E1,-4.699028320E0,1.580115206E1
5.061927750E0,3.254382477E0,-1.173260193E1,-5.482948151E0,1.335318965E1
5.071968750E0,3.247047729E0,-8.744964752E0,-4.755161591E0,1.047040062E1
5.082009750E0,2.716700592E0,-6.081403656E0,-3.348386993E0,7.454906303E0
5.092051750E0,1.917063446E0,-3.789819031E0,-2.253863068E0,4.808093101E0
5.102092750E0,8.809181213E-1,-1.661245422E0,-1.808239746E0,2.608732272E0
5.112133750E0,-2.245330811E-3,1.317260742E-1,-1.410816193E0,1.416954173E0
5.122174750E0,-7.822732544E-1,1.514101410E0,-7.536827087E-1,1.863462409E0
5.132215750E0,-1.444795532E0,2.330204315E0,1.025367737E-1,2.743683668E0
5.142256750E0,-1.895807648E0,2.642305298E0,9.892927551E-1,3.399200506E0
5.152297750E0,-2.258054352E0,2.795586548E0,1.675166473E0,3.964882888E0
5.162338750E0,-2.546205139E0,2.709515533E0,1.961221619E0,4.203691862E0
5.172379750E0,-2.812201996E0,2.548450470E0,1.777852936E0,4.190923636E0
5.182420750E0,-3.369343414E0,2.310744781E0,8.225395203E-1,4.167563767E0
5.192461750E0,-3.862867126E0,2.316432953E0,-7.679031372E-2,4.504830831E0
5.202503750E0,-3.962110748E0,2.737207947E0,-1.175056458E-1,4.817098349E0
5.212544750E0,-3.528163147E0,3.176244965E0,1.233435059E-1,4.748861009E0
5.222585750E0,-2.707868958E0,3.274889832E0,2.844085693E-3,4.249407699E0
5.232626750E0,-1.696571960E0,2.968776398E0,-4.245172119E-1,3.445606562E0
5.242667750E0,-7.300318909E-1,1.904190216E0,-4.153862000E-1,2.081209417E0
5.252708750E0,-1.034349060E-1,9.791139221E-1,-4.194277954E-1,1.070178736E0
5.262749750E0,4.460723877E-1,6.089337158E-1,-1.035546570E0,1.281459146E0
5.272790750E0,9.952803040E-1,4.186793518E-1,-2.169438629E0,2.423290995E0
5.282831750E0,1.361119537E0,1.484912109E-1,-3.090922394E0,3.380606052E0
5.292872750E0,1.442101135E0,-2.939886475E-1,-3.023562469E0,3.362739213E0
5.302913750E0,1.303788757E0,-6.355783081E-1,-2.330354004E0,2.744881544E0
5.312955750E0,1.139879608E0,-8.373587036E-1,-1.500330048E0,2.061913037E0
5.322996750E0,1.040635986E0,-9.172924805E-1,-5.622308350E-1,1.496814037E0
5.333037750E0,9.403445435E-1,-8.680448914E-1,3.929328918E-1,1.338710593E0
5.343078750E0,7.598199463E-1,-9.645941162E-1,8.869056702E-1,1.514717739E0
5.353119750E0,3.782633972E-1,-1.245260468E0,7.327262878E-1,1.493534279E0
5.363160750E0,-1.407073975E-1,-1.572929077E0,1.008901978E-1,1.582429551E0
5.373201750E0,-7.723937988E-1,-2.537373505E0,-1.530716858E0,3.062343969E0
5.383242750E0,-1.361867981E0,-5.323679352E0,-4.166286163E0,6.895954367E0
5.393283750E0,-1.661245422E0,-1.014066238E1,-4.721631317E0,1.130869454E1
5.403324750E0,-1.426683197E0,-1.492142075E1,-2.270927582E0,1.516051893E1
5.413366750E0,-4.770579529E-1,-2.069925568E1,-4.077520752E-1,2.070876702E1
5.423407750E0,5.992039490E-1,-2.938150085E1,5.562432861E-1,2.939287404E1
5.433448750E0,2.016307068E0,-3.673570770E1,1.535057831E0,3.682301070E1
5.443489750E0,3.611689453E0,-4.098237671E1,8.572673035E-1,4.115014470E1
5.453530750E0,4.818928986E0,-3.779445602E1,-2.087708588E0,3.815758784E1
5.463571750E0,4.484823761E0,-3.137565399E1,-4.636159058E0,3.203184788E1
5.473612750E0,4.675227814E0,-2.754032959E1,-8.654852142E0,2.924438364E1
5.483653750E0,2.193538513E0,-2.711147141E1,-8.852890320E0,2.860449545E1
5.493694750E0,-8.170010376E-1,-2.337703720E1,-3.885769501E0,2.371186546E1
5.503735750E0,-5.938151550E-1,-1.798988983E1,-1.145268402E0,1.803608584E1
5.513777750E0,4.044589233E-1,-1.379800690E1,-1.263372803E-1,1.380451167E1
5.523818750E0,1.879940643E0,-1.116782639E1,1.405577087E-1,1.132582357E1
5.533859750E0,3.072959747E0,-9.801767120E0,4.965174866E-1,1.028417473E1
5.543900750E0,3.404669952E0,-8.652307434E0,-3.323089600E-2,9.298134529E0
5.553941750E0,3.072360992E0,-6.944209442E0,-8.174501038E-1,7.637386432E0
5.563982750E0,2.632126465E0,-5.595214691E0,-4.372407532E-1,6.198846396E0
5.574023750E0,2.290237427E0,-4.722230072E0,4.333488464E-1,5.266159468E0
5.584064750E0,2.184706879E0,-3.872147827E0,9.635462952E-1,4.549164143E0
5.594105750E0,2.298919373E0,-3.133284302E0,1.188977509E0,4.064008897E0
5.604146750E0,2.649789734E0,-2.848875732E0,1.611848145E0,4.211357621E0
5.614188750E0,3.114573212E0,-3.219505005E0,2.337539063E0,5.052708940E0
5.624230375E0,3.301235046E0,-3.856879578E0,2.502346344E0,5.659983227E0
5.634271375E0,3.096909943E0,-4.638703766E0,1.130149841E0,5.690840227E0
5.644312375E0,2.503843231E0,-5.469326477E0,-1.438059540E0,6.184721358E0
5.654353375E0,1.876048737E0,-6.030359802E0,-2.511028290E0,6.796327043E0
5.664394375E0,1.766476593E0,-6.362818451E0,-3.023861847E0,7.262894648E0
5.674435375E0,2.528691559E0,-6.740183716E0,-6.803052979E0,9.904841612E0
5.684476375E0,3.317700806E0,-7.343878326E0,-8.220156097E0,1.151132719E1
5.694517375E0,2.863096161E0,-8.521928558E0,-5.214406586E0,1.039281589E1
5.704558375E0,1.776805115E0,-9.910291443E0,-2.645897827E0,1.041017234E1
5.714600375E0,9.175918579E-1,-1.073163345E1,-4.424798584E-1,1.077987569E1
5.724641375E0,3.246748352E-1,-1.104433319E1,1.023721161E0,1.109642800E1
5.734682375E0,-5.613327026E-2,-1.079899338E1,1.627116394E0,1.092103093E1
5.744723375E0,-3.824546814E-1,-1.051967422E1,1.560205536E0,1.064161918E1
5.754764375E0,-7.333250427E-1,-1.031729507E1,6.945556641E-1,1.036661714E1
5.764805375E0,-1.341809692E0,-1.023152344E1,-7.923023987E-1,1.034950570E1
5.774846375E0,-2.374961243E0,-9.888736267E0,-2.246079254E0,1.041500926E1
5.784887375E0,-3.271446991E0,-9.031319275E0,-2.951412506E0,1.004877749E1
5.794928375E0,-3.982318726E0,-8.143365784E0,-3.256328430E0,9.632078881E0
5.804970375E0,-4.824617157E0,-7.437733154E0,-3.910917206E0,9.689792494E0
5.815011375E0,-5.218747559E0,-7.053631897E0,-4.757706299E0,9.981223284E0
5.825052375E0,-4.737198944E0,-6.990014191E0,-5.312602386E0,9.976226558E0
5.835093375E0,-3.834276581E0,-6.878945160E0,-5.886658630E0,9.832309660E0
5.845134375E0,-2.428100739E0,-6.970404968E0,-6.131100311E0,9.595447339E0
5.855175375E0,-8.777746582E-1,-7.122039642E0,-5.292095032E0,8.916288849E0
5.865216375E0,-9.595046997E-2,-7.413034515E0,-4.133654022E0,8.488190785E0
5.875257375E0,2.174977112E-1,-7.838898926E0,-2.939138031E0,8.374614856E0
5.885298375E0,2.091151428E-1,-8.063581696E0,-1.570084991E0,8.217678856E0
5.895339375E0,3.399430847E-1,-8.686137085E0,-2.203118591E0,8.967623447E0
5.905381375E0,1.303339691E0,-9.861043854E0,-8.309819641E0,1.296117212E1
5.915422375E0,1.601369934E0,-1.229917374E1,-1.238210129E1,1.752570947E1
5.925463375E0,1.002615051E0,-1.426458664E1,-4.603526917E0,1.502252073E1
5.935504375E0,1.439257050E0,-1.507095978E1,6.144721985E-1,1.515199213E1
5.945545375E0,2.506986694E0,-1.683653824E1,1.905836792E0,1.712852054E1
5.955586375E0,3.423979797E0,-2.067785019E1,2.430795135E0,2.109990263E1
5.965627375E0,4.236639862E0,-2.590947098E1,2.326462097E0,2.635644569E1
5.975668375E0,4.972958679E0,-3.053739716E1,1.879641266E0,3.099670941E1
5.985709375E0,5.229375458E0,-3.186094482E1,1.350192261E0,3.231546367E1
5.995751375E0,4.368216248E0,-2.822665237E1,9.145980835E-1,2.857729356E1
6.005792375E0,2.727328491E0,-2.197580109E1,3.745211792E-1,2.214756014E1
6.015833375E0,1.523082733E0,-1.771266632E1,-6.036946106E-1,1.778827637E1
6.025874375E0,1.590442657E0,-1.512664398E1,-2.103725281E0,1.535482094E1
6.035915375E0,2.691852264E0,-1.336016739E1,-3.654949493E0,1.411023731E1
6.045956375E0,3.650309143E0,-1.201536392E1,-4.387825470E0,1.330213289E1
6.055997375E0,4.103716278E0,-1.076426559E1,-4.208199005E0,1.226453586E1
6.066038375E0,4.028123474E0,-9.423653412E0,-3.525618439E0,1.083794297E1
6.076079375E0,3.485202484E0,-8.101602631E0,-2.483934631E0,9.162561476E0
6.086120375E0,2.604883118E0,-6.674021301E0,-1.090033264E0,7.246802668E0
6.096162375E0,1.473236389E0,-5.012775879E0,2.189945984E-1,5.229369570E0
6.106203375E0,5.132826233E-1,-3.203488312E0,1.121767273E0,3.432806174E0
6.116244375E0,-2.275268555E-1,-1.307980042E0,1.683099976E0,2.143689760E0
6.126285375E0,-7.923023987E-1,1.383123779E-1,1.796863403E0,1.968652203E0
6.136326375E0,-1.035097504E0,9.092092896E-1,1.572030945E0,2.090303726E0
6.146367375E0,-1.024619293E0,1.139729919E0,1.298849030E0,2.008939468E0
6.156408375E0,-9.175918579E-1,1.188229065E0,1.134041748E0,1.881465869E0
6.166449375E0,-8.991801453E-1,1.282233582E0,1.013392639E0,1.865371956E0
6.176491375E0,-1.043629761E0,1.634151764E0,4.176315308E-1,1.983439225E0
6.186532375E0,-1.284179535E0,2.410587158E0,-1.362616425E0,3.052338619E0
6.196573375E0,-1.442849579E0,3.194956055E0,-3.002156982E0,4.615463752E0
6.206614375E0,-1.498533783E0,3.409310303E0,-2.542762299E0,4.509394676E0
6.216655375E0,-1.555415497E0,3.293451233E0,-1.678908691E0,4.010595066E0
6.226696375E0,-1.584155731E0,3.104993134E0,-8.309220886E-1,3.583428980E0
6.236737375E0,-1.530118103E0,2.881507874E0,2.694396973E-3,3.262568972E0
6.246778375E0,-1.411564636E0,2.590363312E0,4.505630493E-1,2.984209086E0
6.256819375E0,-1.275647278E0,2.253414001E0,5.511538696E-1,2.647436728E0
6.266861375E0,-9.476792908E-1,1.321751404E0,4.785548401E-1,1.695328153E0
6.276902375E0,-2.079176331E-1,-1.170565796E-1,5.453160095E-1,5.952323372E-1
6.286943375E0,1.703457642E-1,-4.953199768E-1,5.414241028E-1,7.533257050E-1
6.296984375E0,2.667453003E-1,-1.009949799E0,-3.562591553E-1,1.103663099E0
6.307025375E0,5.836363220E-1,-2.936743011E0,-4.067641296E0,5.050821378E0
6.317066375E0,7.885601807E-1,-4.240681458E0,-4.573888550E0,6.286943840E0
6.327107375E0,5.263055420E-1,-3.034639435E0,-5.733078003E-1,3.132844691E0
6.337148375E0,5.420228577E-1,-3.380719757E0,1.436113586E0,3.712879891E0
6.347189375E0,1.876348114E0,-9.436077576E0,2.460283813E0,9.930419865E0
6.357231375E0,3.997287598E0,-1.768721924E1,3.889960785E0,1.854583046E1
6.367272375E0,6.431226196E0,-2.894396072E1,4.860692139E0,3.004562965E1
6.377313375E0,7.236252136E0,-4.228032761E1,-3.478765869E0,4.303592987E1
6.387354375E0,3.013383636E0,-5.250885727E1,-2.372461441E1,5.769850866E1
6.397395375E0,-3.188369751E-2,-3.763623505E1,-1.891676239E1,4.212280979E1
6.407436375E0,1.176553345E0,-2.250974075E1,-1.237895782E1,2.571597370E1
6.417477375E0,4.019441528E0,-1.874402161E1,-5.189109192E0,1.986003803E1
6.427518375E0,6.295458527E0,-1.839539658E1,1.057251434E0,1.947154832E1
6.437559375E0,7.821834412E0,-1.633418289E1,1.646276550E0,1.818507220E1
6.447601375E0,7.566914520E0,-1.542826675E1,-6.017486572E-2,1.718409821E1
6.457642375E0,5.015320587E0,-1.853760086E1,1.408720551E0,1.925566358E1
6.467683375E0,3.750899963E0,-1.827205307E1,1.499282227E0,1.871323118E1
6.477724375E0,3.507655792E0,-1.775203445E1,6.186634827E-1,1.810583113E1
6.487765375E0,3.014581146E0,-2.061782501E1,3.614982605E-1,2.084017967E1
6.497806375E0,1.062340851E0,-2.539843369E1,-1.618135071E-1,2.542115626E1
6.507847375E0,2.320025482E0,-2.456182343E1,-1.570234680E-1,2.467165063E1
6.517888375E0,4.517156525E0,-2.108096191E1,-2.768792267E0,2.173655605E1
6.527929375E0,6.795568542E0,-1.790965668E1,-6.926995239E0,2.036955614E1
6.537971375E0,7.834557953E0,-1.488085510E1,-7.437733154E0,1.838858400E1
6.548012375E0,6.395300903E0,-1.284434006E1,-3.390449524E0,1.474354412E1
6.558053375E0,5.430407410E0,-1.053060150E1,-1.114282837E0,1.190061002E1
6.568094375E0,4.532724152E0,-7.942633209E0,3.186872864E-1,9.150550372E0
6.578135375E0,3.199297028E0,-5.316793671E0,8.041278076E-1,6.257029482E0
6.588176375E0,1.344204712E0,-2.649041290E0,6.685098267E-1,3.044866410E0
6.598217375E0,-5.861810303E-1,-5.339396667E-1,7.408094788E-1,1.085126007E0
6.608258375E0,-2.051334229E0,6.239025879E-1,7.696994019E-1,2.278083345E0
6.618300375E0,-2.904859314E0,1.184786224E0,6.483018494E-1,3.203470200E0
6.628340542E0,-3.432961121E0,1.514999542E0,1.850152588E-1,3.756950401E0
6.638381542E0,-3.928730164E0,1.948947144E0,-7.258406067E-1,4.445240179E0
6.648422542E0,-4.419110413E0,2.378703461E0,-1.898951111E0,5.365890636E0
6.658463542E0,-4.700375519E0,2.524649963E0,-2.372566223E0,5.839217237E0
6.668504542E0,-4.722529449E0,2.428849182E0,-2.716850281E0,5.965137735E0
6.678545542E0,-4.429888000E0,2.129771118E0,-3.375031586E0,5.962438337E0
6.688586542E0,-3.966900787E0,1.796863403E0,-4.149371338E0,6.015172686E0
6.698627542E0,-3.534749451E0,1.298100586E0,-4.115391998E0,5.578169064E0
6.708669542E0,-2.922223206E0,5.575904846E-1,-2.900817719E0,4.155122026E0
6.718710542E0,-1.943857727E0,1.206491089E-1,-1.173409882E0,2.273769958E0
6.728751542E0,-6.509962463E-1,-8.562194824E-2,2.236349487E-1,6.936424303E-1
6.738792542E0,1.800755310E-1,-4.147874451E-1,1.107846222E0,1.196578068E0
6.748833542E0,4.571493530E-1,-1.032552795E0,1.655706940E0,2.004124816E0
6.758874542E0,7.908055115E-1,-1.703008575E0,1.804647217E0,2.604297053E0
6.768915542E0,1.161883850E0,-2.005379791E0,1.611099701E0,2.822616594E0
6.778956542E0,1.592837677E0,-2.062710571E0,1.031654663E0,2.802894595E0
6.788998542E0,2.109263763E0,-2.287842407E0,3.215313721E-1,3.128354028E0
6.799039542E0,2.603086853E0,-2.894830170E0,-6.731501770E-1,3.950852318E0
6.809080542E0,2.424208832E0,-3.606300659E0,-1.449286194E0,4.580679357E0
6.819121542E0,1.815574493E0,-4.153412933E0,-1.997146912E0,4.953356995E0
6.829162542E0,1.507515106E0,-5.141957245E0,-2.548749847E0,5.933671030E0
6.839203542E0,1.411115570E0,-6.493945770E0,-1.635948029E0,6.843895438E0
6.849244542E0,1.464853821E0,-7.783514099E0,-9.280700684E-2,7.920700827E0
6.859285542E0,1.552421722E0,-1.012883698E1,1.086740112E-1,1.024769056E1
6.869327542E0,1.546583862E0,-1.484433105E1,-1.608554993E0,1.501111373E1
6.879368542E0,2.375859375E0,-2.142464722E1,-3.945644989E0,2.191411259E1
6.889409542E0,4.624782715E0,-2.572430603E1,-2.280956726E0,2.623606867E1
6.899450542E0,6.583759003E0,-2.848696106E1,6.303392029E-1,2.924466038E1
6.909491542E0,7.521558838E0,-3.003803558E1,1.541045380E0,3.100374574E1
6.919532542E0,6.154751129E0,-2.679742447E1,-1.791773987E-1,2.749572738E1
6.929573542E0,1.740580444E0,-1.980965561E1,-4.756957855E0,2.044702237E1
6.939614542E0,-2.405497742E0,-1.801174438E1,-9.720336456E0,2.060811238E1
6.949656542E0,-8.607101440E-1,-2.358405670E1,-7.972421265E0,2.490999906E1
6.959697542E0,4.295018463E0,-2.958867004E1,-4.064946899E0,3.017383588E1
6.969738542E0,8.162076874E0,-3.245535873E1,-4.390968933E0,3.375278385E1
6.979779542E0,9.512269135E0,-3.111983597E1,-8.099806366E0,3.353407697E1
6.989820542E0,8.459658051E0,-2.120520355E1,-1.030636780E1,2.504890595E1
6.999861542E0,7.249574432E0,-1.676708267E1,-8.124205627E0,1.999235123E1
7.009902542E0,6.068380737E0,-1.624990814E1,-2.357297974E0,1.750547380E1
7.019943542E0,4.946014709E0,-1.584380264E1,1.463506622E0,1.666226261E1
7.029984542E0,4.084855499E0,-1.550685333E1,2.921774139E0,1.629985610E1
7.040026542E0,3.454965363E0,-1.518098099E1,3.254232788E0,1.590562795E1
7.050067542E0,2.847378845E0,-1.524849060E1,3.370091858E0,1.587392677E1
7.060108542E0,2.263293457E0,-1.487172409E1,3.284320221E0,1.539731905E1
7.070149542E0,1.960473175E0,-1.330223785E1,3.558549957E0,1.390885562E1
7.080190542E0,2.714305573E0,-1.123758133E1,6.183940430E0,1.311075162E1
7.090231542E0,4.038751373E0,-7.525899811E0,8.240364075E0,1.186820461E1
7.100272542E0,3.133733368E0,-4.389921112E0,-2.025587769E0,5.761484010E0
7.110314542E0,1.251697083E0,-2.831511841E0,-7.016958160E0,7.669544101E0
7.120355542E0,-5.284011841E-1,-7.948471069E-1,-6.315367126E0,6.387084756E0
7.130396542E0,-1.959125977E0,1.380279694E0,-5.557942200E0,6.052608373E0
7.140437542E0,-2.723735962E0,2.735561371E0,-6.029910736E0,7.159738619E0
7.150478542E0,-3.085383911E0,2.956501923E0,-4.651726685E0,6.316570165E0
7.160519542E0,-3.044069824E0,2.824476471E0,-2.943179626E0,5.089826593E0
7.170560542E0,-3.067271576E0,2.800825653E0,-1.632205811E0,4.462832628E0
7.180601542E0,-3.575464783E0,2.606679382E0,-1.178499298E0,4.579037717E0
7.190643542E0,-4.424499207E0,2.032174072E0,-1.427581329E0,5.073845991E0
7.200684542E0,-5.005291443E0,1.284179535E0,-9.575587463E-1,5.255376129E0
7.210725542E0,-4.994513855E0,6.770420837E-1,-2.826123047E-1,5.048110968E0
7.220766542E0,-4.079317017E0,4.382885742E-1,-1.580712891E-1,4.105838615E0
7.230807542E0,-3.165167999E0,1.523831177E-1,-3.249742126E-1,3.185454021E0
7.240848542E0,-2.348765717E0,-7.903564453E-2,-1.480421448E-1,2.354753384E0
7.250889542E0,-1.427880707E0,-1.887574768E-1,-1.901046753E-2,1.440428442E0
7.260930542E0,-7.812254333E-1,-2.615061951E-1,-4.730163574E-2,8.251885315E-1
7.270972542E0,-4.261637878E-1,-2.727328491E-1,1.287322998E-1,5.220831218E-1
7.281013542E0,-4.161346436E-2,-3.549119568E-1,3.876937866E-1,5.272576691E-1
7.291054542E0,2.463876343E-1,-4.237687683E-1,5.017565918E-1,7.014602717E-1
7.301095542E0,5.436694336E-1,-2.981799316E-1,1.410067749E-1,6.359014351E-1
7.311136542E0,8.602610779E-1,-2.052232361E-1,-4.861889648E-1,1.009230107E0
7.321177542E0,1.198407898E0,-4.945715332E-1,-7.900570679E-1,1.518213642E0
7.331218542E0,1.371597748E0,-1.362616425E0,-4.960684204E-1,1.996017981E0
7.341259542E0,9.994715881E-1,-2.002236328E0,2.535726929E-1,2.252152943E0
7.351301542E0,1.222956848E0,-3.151546326E0,4.079017639E-1,3.405033266E0
7.361342542E0,1.766775970E0,-5.396278381E0,-1.779798889E-1,5.680932541E0
7.371383542E0,2.493215332E0,-8.227341156E0,-1.220412140E0,8.683010479E0
7.381424542E0,3.641327820E0,-1.328277832E1,-3.786825256E0,1.428396002E1
7.391465542E0,4.145629120E0,-2.143302979E1,-3.889960785E0,2.217414714E1
7.401506542E0,4.665797424E0,-2.878813477E1,-1.833686829E-1,2.916436169E1
7.411547542E0,6.720724182E0,-3.928879852E1,4.162843323E-1,3.986164968E1
7.421589542E0,9.343869324E0,-4.920148499E1,-3.676504669E0,5.021564204E1
7.431630542E0,1.181777481E1,-4.628629715E1,-1.026071274E1,4.886065218E1
7.441671542E0,1.064646057E1,-3.203263779E1,-7.418273621E0,3.456107333E1
7.451712542E0,7.242239685E0,-2.308065353E1,-2.379002838E0,2.430691790E1
7.461753542E0,5.582640839E0,-1.856873611E1,-2.544708252E-1,1.939145675E1
7.471794542E0,4.779261475E0,-1.492067230E1,2.402503967E-1,1.566925405E1
7.481835542E0,5.423222351E0,-1.378917526E1,-1.321601715E0,1.487613277E1
7.491876542E0,7.415579224E0,-1.907543243E1,-2.953358459E0,2.067813492E1
7.501918542E0,7.657925262E0,-2.566847214E1,-3.504961395E0,2.701479290E1
7.511959542E0,6.976093140E0,-2.651196808E1,-4.183799744E0,2.773183202E1
7.522000542E0,5.892945557E0,-2.285896454E1,-5.182073822E0,2.416842891E1
7.532041542E0,5.547613678E0,-1.855421631E1,-5.465135193E0,2.012219330E1
7.542082542E0,5.956263885E0,-1.517319717E1,-4.498595123E0,1.690977085E1
7.552123542E0,5.597010956E0,-1.253193970E1,-3.361858978E0,1.413075157E1
7.562164542E0,4.652026062E0,-1.112576385E1,-1.690135345E0,1.217704912E1
7.572206542E0,3.341351624E0,-9.893526306E0,7.915539551E-1,1.047249021E1
7.582247542E0,1.916165314E0,-8.212222595E0,2.616259460E0,8.829331969E0
7.592288542E0,7.731422424E-1,-6.016139374E0,3.399281158E0,6.953185909E0
7.602329542E0,1.691482544E-2,-3.577111359E0,3.826193390E0,5.237916345E0
7.612370542E0,-5.541476440E-1,-1.407223663E0,4.199816437E0,4.463834243E0
7.622411542E0,-1.027313690E0,2.847079468E-1,4.183500366E0,4.317187435E0
7.632452542E0,-1.454974365E0,1.399589539E0,3.822750549E0,4.323103404E0
7.642493542E0,-1.776954803E0,2.006726990E0,3.264710999E0,4.224080905E0
7.652535542E0,-2.068249054E0,2.339934082E0,2.505040741E0,4.003520297E0
7.662576542E0,-2.753524017E0,2.825973358E0,1.545685730E0,4.237589446E0
7.672617542E0,-3.157533875E0,2.372566223E0,7.382647705E-1,4.017975301E0
7.682658542E0,-3.268902283E0,1.823957062E0,1.169068909E-1,3.745158036E0
7.692699542E0,-3.154240723E0,1.488055573E0,-4.712200928E-1,3.519317022E0
7.702740542E0,-3.015329590E0,1.403032379E0,-1.158141632E0,3.521647971E0
7.712781542E0,-3.165617065E0,1.597478027E0,-1.801204376E0,3.977110089E0
7.722823542E0,-3.338208160E0,1.948797455E0,-2.362686768E0,4.530312793E0
7.732864542E0,-3.274740143E0,2.373913422E0,-3.045716400E0,5.063178481E0
7.742905542E0,-2.664309540E0,2.517315216E0,-4.544699249E0,5.838639609E0
7.752946542E0,-1.546583862E0,2.523153076E0,-6.057752838E0,6.742002116E0
7.762987542E0,-3.643423462E-1,2.151475983E0,-5.928571472E0,6.317400886E0
7.773028542E0,2.598596191E-1,1.276695099E0,-4.574786682E0,4.756695343E0
7.783069542E0,4.454736328E-1,7.141648865E-1,-2.842738495E0,2.964732769E0
7.793111542E0,3.478765869E-1,4.185296631E-1,-9.178912354E-1,1.067103331E0
7.803152542E0,1.336720276E-1,1.661544800E-1,6.767427063E-1,7.095464838E-1
7.813193542E0,4.191284180E-2,-1.463955688E-1,1.445843353E0,1.453840208E0
7.823234542E0,6.870712280E-2,-7.714956665E-1,1.353186035E0,1.559178847E0
7.833275542E0,-9.011260986E-2,-1.563498688E0,7.289840698E-1,1.727444993E0
7.843316542E0,-1.020577698E0,-3.101849670E0,-1.016236725E0,3.419910422E0
7.853357542E0,-1.270557861E0,-5.951324158E0,-5.269492035E0,8.049852347E0
7.863398542E0,-4.987628174E-1,-5.345384216E0,-3.223845978E0,6.262194476E0
7.873440542E0,-1.332229614E-1,-3.381168823E0,5.433700562E-2,3.384228639E0
7.883481542E0,-4.640350342E-3,-7.026837616E0,4.108955383E-1,7.038842487E0
7.893522542E0,7.417076111E-1,-1.460647568E1,-3.367996216E-2,1.462533406E1
7.903563542E0,2.715353394E0,-2.168031555E1,-1.323248291E-1,2.185009694E1
7.913604542E0,5.230572968E0,-3.428081268E1,-3.532354431E0,3.485700130E1
7.923645542E0,6.483018494E0,-5.098757080E1,-1.259735367E1,5.291932751E1
7.933687542E0,6.978338470E0,-5.247442886E1,-9.973909149E0,5.386781744E1
7.943728542E0,7.892337799E0,-4.032868607E1,-5.549859009E0,4.146676803E1
7.953769542E0,7.604785767E0,-3.066972198E1,-5.949527893E0,3.215371666E1
7.963810542E0,6.167624359E0,-2.381457733E1,-5.025948486E0,2.510844165E1
7.973851542E0,5.612279205E0,-2.011142807E1,-4.757556610E0,2.141498452E1
7.983892542E0,6.583160248E0,-1.872920242E1,-4.690046997E0,2.039895985E1
7.993933542E0,7.470514984E0,-2.022444305E1,-2.516117706E0,2.170639397E1
8.003974542E0,6.480024719E0,-2.323019257E1,7.963439941E-2,2.411719114E1
8.014016542E0,4.543801117E0,-2.523721893E1,1.721270599E0,2.570070272E1
8.024057542E0,2.411634979E0,-2.604628647E1,8.434959412E-1,2.617129167E1
8.034098542E0,8.342152405E-1,-2.496583328E1,-2.645748138E0,2.511948904E1
8.044139542E0,1.265618134E0,-2.052397018E1,-5.753285980E0,2.135264482E1
8.054180542E0,2.628384247E0,-1.564277069E1,-7.141349487E0,1.739550376E1
8.064221542E0,3.256627808E0,-1.193572952E1,-6.619983673E0,1.403180130E1
8.074263542E0,3.282074890E0,-9.567055206E0,-5.394033051E0,1.146281612E1
8.084304542E0,2.927911377E0,-8.166268158E0,-3.848497009E0,9.490602188E0
8.094345542E0,2.434088287E0,-7.038812714E0,-2.153272247E0,7.752822169E0
8.104386542E0,1.664837952E0,-5.651647339E0,-8.470884705E-1,5.952340878E0
8.114427542E0,7.216493225E-1,-4.029470673E0,1.933978271E-1,4.098147675E0
8.124468542E0,-1.142124939E-1,-2.456691284E0,1.137185211E0,2.709532573E0
8.134509542E0,-7.493417358E-1,-9.735754395E-1,1.833836517E0,2.207332903E0
8.144550542E0,-1.322948914E0,2.829116821E-1,2.155966644E0,2.545275038E0
8.154592542E0,-1.774110718E0,1.265169067E0,2.381248169E0,3.227764621E0
8.164633542E0,-2.076481934E0,1.912872162E0,2.709066467E0,3.912786507E0
8.174674542E0,-2.459535370E0,2.483485565E0,2.973716125E0,4.589117822E0
8.184715542E0,-2.841840363E0,2.867886200E0,2.938688965E0,4.993668064E0
8.194756542E0,-3.251688080E0,3.125949554E0,2.646646271E0,5.229700992E0
8.204797542E0,-3.475173340E0,3.221001892E0,1.569635925E0,4.991536824E0
8.214839542E0,-2.792892151E0,3.067870331E0,7.963439941E-2,4.149507991E0
8.224880542E0,-1.977238312E0,2.884950714E0,-4.891827393E-1,3.531531073E0
8.234921542E0,-1.667831726E0,2.657723236E0,-8.864566040E-1,3.260515416E0
8.244962542E0,-1.644031219E0,2.354753265E0,-1.317859497E0,3.159818863E0
8.255003542E0,-1.639091492E0,2.069147186E0,-1.848206635E0,3.222399535E0
8.265044542E0,-1.441502380E0,1.551373901E0,-2.518961792E0,3.290875051E0
8.275085542E0,-9.382489014E-1,4.562512207E-1,-3.110381927E0,3.280693816E0
8.285127542E0,-5.613327026E-1,-6.017486572E-1,-3.214116211E0,3.317791263E0
8.295168542E0,-6.801855469E-1,-1.171164551E0,-2.745291138E0,3.061192940E0
8.305209542E0,-1.054557037E0,-1.200952606E0,-1.856140137E0,2.449415015E0
8.315250542E0,-1.378932495E0,-8.059240723E-1,-8.482859802E-1,1.808468286E0
8.325291542E0,-1.628463593E0,-4.722679138E-1,-1.296304321E-1,1.700510130E0
8.335332542E0,-1.670825500E0,-3.722758484E-1,3.028202820E-1,1.738374897E0
8.345373542E0,-1.366059265E0,-7.502398682E-1,2.642005920E-1,1.580752899E0
8.355415542E0,-7.104226685E-1,-1.405726776E0,-4.284091187E-1,1.632269129E0
8.365456542E0,9.505233765E-2,-1.861229553E0,-1.417402496E0,2.341418423E0
8.375497542E0,7.768844604E-1,-1.969753876E0,-2.362986145E0,3.172882493E0
8.385538542E0,1.379830627E0,-2.099983063E0,-4.003125458E0,4.726401893E0
8.395579542E0,2.321821747E0,-3.592678986E0,-8.700956268E0,9.695609238E0
8.405620542E0,2.487676849E0,-4.977599030E0,-9.182055817E0,1.073662783E1
8.415661542E0,1.549727325E0,-3.774101715E0,-2.229314117E0,4.649230041E0
8.425703542E0,1.657203827E0,-7.800279236E0,7.420069885E-1,8.008823575E0
8.435744542E0,3.148851929E0,-1.769799683E1,1.973346405E0,1.808392812E1
8.445785542E0,5.994733887E0,-3.228980301E1,3.969894562E0,3.308063294E1
8.455826542E0,8.439001007E0,-4.565386230E1,2.893632660E0,4.651736226E1
8.465867542E0,8.718320160E0,-5.177104156E1,-4.730013885E0,5.271264443E1
8.475908542E0,8.819659424E0,-4.314043900E1,-2.334245911E0,4.409458666E1
8.485950542E0,1.018886215E1,-3.930436615E1,-4.469705200E-1,4.060598346E1
8.495991542E0,1.129595993E1,-3.404789703E1,-4.049528961E0,3.610064664E1
8.506032542E0,1.087069427E1,-2.428115707E1,-5.804030457E0,2.722927381E1
8.516073542E0,1.039842636E1,-1.843626160E1,-6.138135681E0,2.203859619E1
8.526114542E0,1.035845947E1,-1.564980606E1,-7.409441986E0,2.017706477E1
8.536155542E0,1.060439804E1,-1.655976379E1,-5.535339203E0,2.042838747E1
8.546196542E0,1.093116852E1,-2.041275146E1,-2.236798553E0,2.326314973E1
8.556238542E0,1.060215271E1,-2.277813263E1,-1.727707214E0,2.518400168E1
8.566279542E0,8.187673645E0,-2.243983612E1,-2.826572113E0,2.405356013E1
8.576320542E0,5.493725739E0,-2.017953644E1,-2.015708313E0,2.101089701E1
8.586361542E0,3.805087280E0,-1.710073883E1,-9.104067993E-1,1.754259953E1
8.596402542E0,2.216590576E0,-1.373558670E1,-3.365002441E-1,1.391735780E1
8.606443542E0,9.349557495E-1,-1.055410263E1,-1.878593445E-1,1.059709940E1
8.616485542E0,1.092727661E-1,-7.857011261E0,2.288740540E-1,7.861103601E0
8.626526750E0,-5.673202515E-1,-5.608836365E0,7.146139526E-1,5.682567266E0
8.636567750E0,-1.242715759E0,-3.580254822E0,8.279283142E-1,3.879179339E0
8.646608750E0,-1.930834808E0,-1.647174683E0,5.551954651E-1,2.597989510E0
8.656649750E0,-2.803070984E0,4.400848389E-1,1.463955688E-1,2.841181668E0
8.666690750E0,-3.474724274E0,1.894310760E0,2.591111755E-1,3.966013192E0
8.676731750E0,-3.808530121E0,2.528092804E0,5.755531311E-1,4.607322033E0
8.686773750E0,-4.005221100E0,2.841990051E0,1.268911285E0,5.072360334E0
8.696814750E0,-4.363126831E0,3.238814850E0,2.017803955E0,5.796406661E0
8.706855750E0,-5.139262848E0,3.505410461E0,1.686243439E0,6.445412482E0
8.716896750E0,-6.418352966E0,2.756667480E0,-1.268462219E0,7.099539901E0
8.726937750E0,-7.382348328E0,1.213376770E0,-6.270310822E0,9.761564824E0
8.736978750E0,-6.682553558E0,6.173162842E-1,-6.106401672E0,9.073353451E0
8.747020750E0,-4.262386322E0,6.668632507E-1,-3.648961945E0,5.650448392E0
8.757061750E0,-2.067799988E0,5.679190063E-1,-1.955383759E0,2.902043148E0
8.767102750E0,-9.232800293E-1,2.752775574E-1,-1.496438141E0,1.779761460E0
8.777143750E0,-2.760260010E-1,1.763333130E-1,-1.235979767E0,1.278643725E0
8.787184750E0,1.508862305E-1,2.830613708E-1,-4.830455017E-1,5.798476963E-1
8.797225750E0,3.333567810E-1,1.585203552E-1,1.255888367E-1,3.899076844E-1
8.807267750E0,4.715194702E-1,9.400451660E-2,4.992118835E-1,6.930944846E-1
8.817308750E0,5.629792786E-1,1.204994202E-1,6.463558960E-1,8.655875014E-1
8.827349750E0,7.104226685E-1,2.302212524E-1,1.790277100E-1,7.679538488E-1
8.837390750E0,9.776170349E-1,3.326083374E-1,-1.190175018E0,1.575715694E0
8.847431750E0,1.110989685E0,1.050814819E-1,-1.985471191E0,2.277594356E0
8.857472750E0,8.858578491E-1,-4.076023865E-1,-9.508227539E-1,1.361964663E0
8.867513750E0,1.589993591E0,-1.432221680E0,-1.823507996E0,2.811497816E0
8.877555750E0,1.984573059E0,-3.022963715E0,-3.435056763E0,4.987630180E0
8.887596750E0,2.133513336E0,-5.073848877E0,-6.826853485E0,8.769364292E0
8.897637750E0,3.365152130E0,-9.871072998E0,-1.188244034E1,1.580995634E1
8.907678750E0,3.726351013E0,-1.326017532E1,-8.497678986E0,1.618420494E1
8.917719750E0,3.135978699E0,-1.413705185E1,-1.346899109E0,1.454320235E1
8.927760750E0,3.153192902E0,-1.729069382E1,3.538641357E0,1.792854430E1
8.937802750E0,4.378544769E0,-2.579256409E1,5.791157227E0,2.679487859E1
8.947843750E0,6.415658569E0,-3.758189804E1,7.263495483E0,3.881131410E1
8.957884750E0,8.345744934E0,-4.696274048E1,7.277715912E0,4.825055026E1
8.967925750E0,9.700727234E0,-5.023957626E1,5.568420410E-1,5.117058926E1
8.977966750E0,9.658814392E0,-4.172079117E1,-1.048030609E1,4.408802476E1
8.988007750E0,7.160359955E0,-2.705653564E1,-7.616162109E0,2.900573738E1
8.998049750E0,6.032305756E0,-2.030737061E1,-8.722661133E0,2.290988500E1
9.008090750E0,6.557114410E0,-1.785187683E1,-9.875563660E0,2.142923268E1
9.018131750E0,7.808212738E0,-1.863789230E1,-8.754395142E0,2.202223081E1
9.028172750E0,9.051527252E0,-2.152598648E1,-7.561974792E0,2.454550269E1
9.038213750E0,8.831933899E0,-2.323498260E1,-6.599027252E0,2.571798269E1
9.048254750E0,6.814429321E0,-2.125445114E1,-4.664599915E0,2.280233832E1
9.058295750E0,4.546944580E0,-1.758902344E1,-1.981728973E0,1.827500206E1
9.068337750E0,3.019221497E0,-1.480496292E1,1.213975525E-1,1.511017415E1
9.078378750E0,1.869612122E0,-1.227252914E1,9.430389404E-1,1.244988930E1
9.088419750E0,8.613088989E-1,-9.952204285E0,9.364526367E-1,1.003320321E1
9.098460750E0,-3.263214111E-2,-7.763156433E0,8.798703003E-1,7.812927390E0
9.108501750E0,-7.473957825E-1,-5.350323944E0,7.325765991E-1,5.451718558E0
9.118543750E0,-1.468146973E0,-2.879112854E0,5.611830139E-1,3.280194009E0
9.128584750E0,-2.062860260E0,-7.508386230E-1,5.710624695E-1,2.268317313E0
9.138625750E0,-2.466121674E0,1.031804352E0,6.533912659E-1,2.751962295E0
9.148666750E0,-2.667003937E0,2.276016998E0,9.630972290E-1,3.636030755E0
9.158707750E0,-2.674039307E0,2.783012695E0,1.464704132E0,4.128075105E0
9.168748750E0,-2.565215607E0,2.768492889E0,1.926643524E0,4.237551092E0
9.178789750E0,-2.446213074E0,2.772983551E0,2.030078430E0,4.218366344E0
9.188831750E0,-2.232158203E0,2.495909729E0,1.953138428E0,3.876447515E0
9.198872750E0,-2.025887146E0,2.254312134E0,1.630409546E0,3.441566099E0
9.208913750E0,-1.811981964E0,2.040257263E0,7.574249268E-1,2.831893511E0
9.218954750E0,-1.614841919E0,1.971101074E0,-6.559359741E-1,2.631198562E0
9.228995750E0,-1.260528717E0,2.310295715E0,-2.300266571E0,3.495371974E0
9.239036750E0,-5.710624695E-1,3.033292236E0,-3.954776001E0,5.016694863E0
9.249078750E0,9.145980835E-2,3.727548523E0,-5.630690918E0,6.753344586E0
9.259119750E0,3.230282593E-1,3.780238953E0,-5.688620453E0,6.837759608E0
9.269160750E0,1.032852173E-1,3.068768463E0,-3.673361206E0,4.787649764E0
9.279201750E0,-3.716770935E-1,2.049388275E0,-1.341510315E0,2.477455568E0
9.289242750E0,-6.899153137E-1,1.084045715E0,3.966751099E-1,1.344800876E0
9.299283750E0,-6.655160522E-1,4.050576782E-1,1.164428558E0,1.401027197E0
9.309325750E0,-7.204518127E-1,-1.610650635E-1,1.302740936E0,1.497373272E0
9.319366750E0,-7.571255493E-1,-7.301815796E-1,1.157991943E0,1.564400709E0
9.329407750E0,-8.675958252E-1,-1.231040039E0,8.334667969E-1,1.721292827E0
9.339448750E0,-1.749262390E0,-1.910776520E0,4.263134766E-1,2.625400731E0
9.349489750E0,-2.336191864E0,-4.118535461E0,-3.198548584E0,5.714091338E0
9.359530750E0,-5.378315735E-1,-6.513704681E0,-7.894134064E0,1.024865670E1
9.369572750E0,3.695814514E-1,-4.752018127E0,-3.938459930E0,6.183019760E0
9.379613750E0,2.133064270E-1,-2.281256104E0,-3.140469360E-1,2.312629352E0
9.389654750E0,2.076182556E-1,-2.584076385E0,1.310075684E0,2.904626379E0
9.399695750E0,9.596543884E-1,-1.174173294E1,1.861828308E0,1.192709661E1
9.409736750E0,3.529510345E0,-2.729349289E1,3.394640808E0,2.772933075E1
9.419777750E0,7.363786926E0,-4.579202499E1,5.892496490E0,4.675314349E1
9.429819750E0,9.736053772E0,-5.760276443E1,6.439459076E0,5.877359821E1
9.439860750E0,1.104897354E1,-6.114874054E1,-2.170187073E0,6.217682846E1
9.449901750E0,1.562630493E1,-5.149905716E1,-1.436487808E1,5.570174159E1
9.459942750E0,1.438343948E1,-3.664379883E1,-9.143885193E0,4.041363582E1
9.469983750E0,1.000953506E1,-2.558045517E1,-3.465293884E0,2.768679723E1
9.480025750E0,7.347321167E0,-1.996997223E1,-2.403102722E0,2.141396324E1
9.490066750E0,6.454427948E0,-1.688997711E1,-2.467319183E0,1.824879807E1
9.500107750E0,6.473588104E0,-1.395667694E1,-4.106111298E0,1.592345202E1
9.510148750E0,7.089557190E0,-1.231998047E1,-5.299729156E0,1.517006490E1
9.520189750E0,7.938890991E0,-1.315195038E1,-3.866459656E0,1.584137933E1
9.530230750E0,8.221652985E0,-1.332514023E1,-2.046394501E0,1.579058803E1
9.540272750E0,7.576195221E0,-1.191552155E1,-1.254241791E0,1.417573667E1
9.550313750E0,6.642436981E0,-1.035396881E1,-7.479945374E-1,1.232420931E1
9.560354750E0,5.802982635E0,-9.157207489E0,-4.514611816E-1,1.085047804E1
9.570395750E0,4.410428467E0,-8.379275208E0,4.824467468E-1,9.481396897E0
9.580436750E0,2.790347443E0,-7.384294281E0,1.460662537E0,8.027912302E0
9.590477750E0,1.396595764E0,-5.642067261E0,1.778601379E0,6.078390048E0
9.600519750E0,8.008346558E-2,-3.133583679E0,1.478475494E0,3.465782714E0
9.610560750E0,-1.100661163E0,-7.539820862E-1,1.277144165E0,1.846900431E0
9.620601750E0,-2.100432129E0,1.020577698E0,1.295555878E0,2.670554062E0
9.630642750E0,-2.709066467E0,2.143093414E0,1.392703857E0,3.724448220E0
9.640683750E0,-3.072810059E0,2.780617676E0,1.573378143E0,4.432777357E0
9.650724750E0,-3.971840515E0,3.516786804E0,1.793121185E0,5.599874114E0
9.660766750E0,-4.938679962E0,4.008514252E0,2.132764893E0,6.708757885E0
9.670807750E0,-6.309080200E0,4.512516174E0,2.226170654E0,8.069890394E0
9.680848750E0,-9.583071899E0,4.931345215E0,2.810256042E0,1.113781719E1
9.690889750E0,-1.120644608E1,3.760480042E0,1.478625183E0,1.191268132E1
9.700930750E0,-9.037157135E0,1.999392242E0,-1.512005768E0,9.378376185E0
9.710972750E0,-6.080655212E0,2.026934967E0,-2.794239349E0,6.992181828E0
9.721013750E0,-3.904779968E0,2.288141785E0,-3.112776947E0,5.492929979E0
9.731054750E0,-1.870809631E0,2.131866760E0,-3.194207611E0,4.271738150E0
9.741095750E0,-2.098635864E-1,1.984573059E0,-3.749852142E0,4.247818739E0
9.751136750E0,6.773414612E-1,1.880988464E0,-4.188440094E0,4.641114034E0
9.761177750E0,1.109792175E0,1.611997833E0,-3.893852692E0,4.358011527E0
9.771219750E0,1.241667938E0,1.238823853E0,-3.182980957E0,3.634252548E0
9.781260750E0,1.137484589E0,7.773335266E-1,-2.252066803E0,2.640061266E0
9.791301750E0,9.253756714E-1,2.558180237E-1,-1.047821045E0,1.421158660E0
9.801342750E0,8.150550842E-1,8.367599487E-2,-3.908372498E-1,9.077831339E-1
9.811383750E0,7.764353943E-1,-2.326162720E-1,-4.568499756E-1,9.304161175E-1
9.821424750E0,5.951623535E-1,-1.198407898E0,-9.862989807E-1,1.662283188E0
9.831466750E0,4.068539429E-1,-3.127296753E0,-2.076931000E0,3.776129962E0
9.841507750E0,7.078779602E-1,-6.739435272E0,-3.497327271E0,7.625770586E0
9.851548750E0,7.482939148E-1,-1.507904297E1,-6.618486786E0,1.648459426E1
9.861589750E0,9.523196411E-1,-2.508543457E1,-5.303321686E0,2.565757512E1
9.871630750E0,2.149380341E0,-3.489169235E1,8.228388977E-1,3.496751485E1
9.881671750E0,3.679648132E0,-5.010395828E1,2.440674591E0,5.029814448E1
9.891713750E0,5.107079773E0,-6.069233963E1,3.101999359E0,6.098577501E1
9.901754750E0,6.279591522E0,-5.677528519E1,1.160836029E0,5.713329868E1
9.911795750E0,5.075046387E0,-3.880380707E1,-1.517843628E-1,3.913457010E1
9.921836750E0,2.408491516E0,-2.657768143E1,-7.394622803E-2,2.668669049E1
9.931877750E0,1.428030396E0,-2.041694275E1,-1.103505249E0,2.049654961E1
9.941919750E0,7.658074951E-1,-1.801803131E1,-2.808160400E0,1.825162125E1
9.951960750E0,4.773573303E-1,-1.935370377E1,-5.168152771E0,2.003755281E1
9.962001750E0,1.929188232E0,-2.119622223E1,-5.830225983E0,2.206792104E1
9.972042750E0,3.679049377E0,-2.092947693E1,-6.012247467E0,2.208450879E1
9.982083750E0,4.693639526E0,-1.857517273E1,-8.243507538E0,2.085719805E1
9.992124750E0,4.825814667E0,-1.542931458E1,-7.693401489E0,1.790364940E1
1.000216675E1,3.752845917E0,-1.347452957E1,-4.089196472E0,1.457286271E1
1.001220775E1,2.223176880E0,-1.130928223E1,-1.222807159E0,1.159041144E1
1.002224875E1,7.990383911E-1,-8.538843384E0,5.014572144E-1,8.590795541E0
1.003228975E1,-3.032693481E-1,-5.734874268E0,1.232387238E0,5.873630348E0
1.004233075E1,-1.187630310E0,-3.301534424E0,1.632355499E0,3.869777743E0
1.005237275E1,-1.921853485E0,-1.366508331E0,1.804946594E0,2.969629277E0
1.006241375E1,-2.512225800E0,1.552272034E-1,1.814077606E0,3.102620105E0
1.007245475E1,-2.956950989E0,1.335073700E0,1.846260681E0,3.732915675E0
1.008249575E1,-3.273991699E0,2.145039368E0,2.010918274E0,4.400455413E0
1.009253675E1,-3.591930542E0,2.603835297E0,2.144739990E0,4.927659982E0
1.010257775E1,-3.789369965E0,2.873574371E0,2.218237152E0,5.247602353E0
1.011261975E1,-3.839365997E0,3.205134888E0,2.035616913E0,5.399755284E0
1.012266075E1,-3.794459381E0,3.988455963E0,2.055226135E0,5.876194128E0
1.013270175E1,-2.793790283E0,4.409081268E0,2.624192963E0,5.842229924E0
1.014274275E1,-9.627978516E-1,4.033212891E0,1.683998108E0,4.475448084E0
1.015278375E1,-3.088078308E-1,3.121009827E0,6.686595154E-1,3.206738243E0
1.016282575E1,-7.885601807E-1,2.563419342E0,2.067201233E-1,2.689921763E0
1.017286675E1,-1.016536102E0,2.654729462E0,-5.812413025E-1,2.901512642E0
1.018290775E1,-4.595443726E-1,3.025807800E0,-1.919907532E0,3.612857429E0
1.019294875E1,2.454895020E-2,2.885998535E0,-2.886597290E0,4.081915495E0
1.020298975E1,1.347198486E-1,1.936373291E0,-2.647394714E0,3.282741192E0
1.021303075E1,8.187973022E-2,1.011596375E0,-1.759291534E0,2.031043628E0
1.022307275E1,4.805007935E-2,4.926255798E-1,-1.103205872E0,1.209153409E0
1.023311375E1,5.538482666E-3,-5.373825073E-2,-8.033793640E-1,8.051936891E-1
1.024315475E1,-1.806742859E-1,-7.116201782E-1,-5.867797852E-1,9.398707315E-1
1.025319575E1,-4.589456177E-1,-1.210832062E0,-4.436773682E-1,1.368793253E0
1.026323675E1,-1.375040588E0,-1.512005768E0,-5.078938293E-1,2.105909353E0
1.027327875E1,-3.561843109E0,-2.197879486E0,-6.360273743E-1,4.233430216E0
1.028331975E1,-4.093986511E0,-3.883524170E0,-1.604812775E0,5.866677899E0
1.029336075E1,-2.925815735E0,-5.120402069E0,-3.137625275E0,6.680090376E0
1.030340175E1,-1.526525574E0,-7.965535583E0,-6.443350983E0,1.035841732E1
1.031344275E1,-5.493576050E-1,-1.433134781E1,-1.095182556E1,1.804527104E1
1.032348475E1,7.201524353E-1,-1.734742584E1,-6.565646667E0,1.856231449E1
1.033352575E1,2.309098206E0,-2.115490814E1,-1.551822968E0,2.133706230E1
1.034356675E1,4.411326599E0,-3.341366592E1,-3.017724609E-1,3.370495423E1
1.035360775E1,6.338269501E0,-4.636263840E1,7.635621643E-1,4.680011674E1
1.036364875E1,8.298293610E0,-5.284745316E1,-4.212390289E0,5.366059275E1
1.037368975E1,7.989186401E0,-4.552677658E1,-7.385192413E0,4.680871235E1
1.038373175E1,4.197571106E0,-3.223771133E1,3.472179565E0,3.269473453E1
1.039377275E1,3.865112457E0,-2.249043091E1,1.559457092E0,2.287335750E1
1.040381375E1,4.051474915E0,-1.699610641E1,-8.482859802E-1,1.749290346E1
1.041385475E1,4.481081543E0,-1.596819397E1,-1.660047913E0,1.666790537E1
1.042389575E1,5.778882751E0,-1.956985428E1,-3.614383850E0,2.072289683E1
1.043393775E1,6.856791229E0,-2.449326599E1,-6.013594666E0,2.613616241E1
1.044397875E1,6.513854370E0,-2.480132538E1,-6.935377808E0,2.656380064E1
1.045401975E1,5.253924408E0,-2.087543930E1,-6.306834869E0,2.243131413E1
1.046406075E1,4.704417114E0,-1.723261459E1,-5.411846008E0,1.866501067E1
1.047410175E1,4.404141541E0,-1.413839905E1,-4.371359711E0,1.544019352E1
1.048414275E1,3.731290741E0,-1.154579041E1,-3.226839752E0,1.255548890E1
1.049418475E1,2.634820862E0,-9.616602173E0,-1.945204926E0,1.015899309E1
1.050422575E1,1.332528992E0,-7.849526825E0,-5.559439087E-1,7.981214101E0
1.051426675E1,1.860630798E-1,-6.088439026E0,4.525090027E-1,6.108066277E0
1.052430775E1,-7.497908020E-1,-4.211791534E0,1.055754547E0,4.406358115E0
1.053434875E1,-1.499880981E0,-2.406695251E0,1.403930511E0,3.164308119E0
1.054439075E1,-2.136806488E0,-7.340734863E-1,1.620380402E0,2.780366612E0
1.055443175E1,-2.628833313E0,7.232958984E-1,1.721270599E0,3.224390488E0
1.056447275E1,-3.048261108E0,1.881138153E0,1.843416595E0,4.028493674E0
1.057451375E1,-3.478616180E0,2.748883667E0,1.956581268E0,4.846167785E0
1.058455475E1,-3.957470398E0,3.284020844E0,2.237996063E0,5.608474947E0
1.059459675E1,-4.353696442E0,3.563639374E0,2.365081787E0,6.103098406E0
1.060463775E1,-4.762945404E0,3.769910431E0,1.748214569E0,6.320927761E0
1.061467875E1,-5.103936310E0,3.701652374E0,7.307803345E-1,6.347159684E0
1.062472017E1,-5.103786621E0,3.168610840E0,-2.769241333E-1,6.013769159E0
1.063476117E1,-4.302203522E0,2.210453339E0,-9.376501465E-1,4.926890186E0
1.064480317E1,-3.458258514E0,1.666484528E0,-1.049766998E0,3.979790621E0
1.065484417E1,-2.313139801E0,1.217717743E0,-1.052611084E0,2.818056482E0
1.066488517E1,-1.090931396E0,7.274871826E-1,-8.678952026E-1,1.572453813E0
1.067492617E1,-9.654922485E-2,3.635939026E-1,-6.465055847E-1,7.479918114E-1
1.068496717E1,5.459147644E-1,3.097059631E-1,-1.073118439E0,1.243191014E0
1.069500817E1,9.728269958E-1,2.986289978E-1,-2.066452789E0,2.303431955E0
1.070505017E1,1.137484589E0,-2.320175171E-2,-2.786455536E0,3.009774736E0
1.071509117E1,1.089135132E0,-6.183641052E-1,-2.735261993E0,3.008362956E0
1.072513217E1,1.188827820E0,-1.373094635E0,-2.754721527E0,3.299574390E0
1.073517317E1,1.166224823E0,-2.655627594E0,-3.091970215E0,4.239424261E0
1.074521417E1,6.080355835E-1,-3.462599487E0,-3.199297028E0,4.753399200E0
1.075525617E1,3.998185730E-1,-3.062780914E0,-2.744542694E0,4.131948260E0
1.076529717E1,5.026547241E-1,-2.923720093E0,-1.924697571E0,3.536277943E0
1.077533817E1,4.673281860E-1,-4.797523499E0,-1.033001862E0,4.929677494E0
1.078537917E1,5.987548828E-3,-9.720336456E0,-9.535171509E-2,9.720805966E0
1.079542017E1,4.225712585E-1,-1.714594482E1,3.670367432E-1,1.715507815E1
1.080546217E1,2.019450531E0,-2.722254044E1,2.146536255E-1,2.729818610E1
1.081550317E1,4.045936432E0,-3.923236588E1,-1.674418030E0,3.947596496E1
1.082554417E1,6.702462158E0,-4.649526260E1,-3.707939301E0,4.712198274E1
1.083558517E1,7.532186737E0,-4.605427963E1,-2.026635590E0,4.671014624E1
1.084562617E1,5.628445587E0,-3.929927673E1,-5.213658142E-1,3.970370731E1
1.085566817E1,3.118465118E0,-2.863365601E1,-8.557704163E-1,2.881568018E1
1.086570917E1,8.963360596E-1,-2.163795364E1,-6.418652344E-1,2.166602057E1
1.087575017E1,-2.639012146E-1,-1.968571335E1,-9.205856323E-1,1.970899368E1
1.088579117E1,1.316661987E0,-2.225003082E1,-3.317551117E0,2.253449835E1
1.089583217E1,5.143154755E0,-2.594584534E1,-8.055947571E0,2.765026623E1
1.090587417E1,7.595355377E0,-2.516147644E1,-1.097787140E1,2.848338078E1
1.091591517E1,7.706274719E0,-2.199136871E1,-9.501940613E0,2.516533019E1
1.092595617E1,6.962621155E0,-1.836396194E1,-6.216572571E0,2.059997491E1
1.093599717E1,5.968388672E0,-1.489642273E1,-3.572171631E0,1.644036142E1
1.094603817E1,4.674329681E0,-1.246832199E1,-1.931283875E0,1.345504621E1
1.095608017E1,3.022963715E0,-1.024260040E1,-4.808001709E-1,1.069019838E1
1.096612117E1,1.569037170E0,-8.195607147E0,7.062313843E-1,8.374283069E0
1.097616217E1,3.620970154E-1,-6.191873932E0,1.652114410E0,6.418714752E0
1.098620317E1,-7.494914246E-1,-4.027824097E0,2.309098206E0,4.702875596E0
1.099624417E1,-1.839225311E0,-1.926194458E0,2.661465454E0,3.765152480E0
1.100628617E1,-2.750530243E0,-1.327738953E-1,2.748434601E0,3.890621837E0
1.101632717E1,-3.281326447E0,1.250050507E0,2.270628204E0,4.181564535E0
1.102636817E1,-3.563040619E0,2.282303925E0,1.477427673E0,4.481848077E0
1.103640917E1,-4.030668182E0,3.157533875E0,1.282682648E0,5.278407046E0
1.104645017E1,-4.507875824E0,3.640130310E0,1.642085266E0,6.022286704E0
1.105649217E1,-4.973407745E0,3.920946350E0,1.352886658E0,6.476025571E0
1.106653317E1,-5.054089966E0,4.078418884E0,7.012916565E-1,6.532161661E0
1.107657417E1,-4.661755829E0,3.843706970E0,8.951385498E-2,6.042686771E0
1.108661517E1,-3.955225067E0,3.379222870E0,-5.334906006E-1,5.229489914E0
1.109665617E1,-2.847079468E0,2.741698608E0,-9.361532593E-1,4.061915272E0
1.110669817E1,-1.459764404E0,2.070344696E0,-1.301393738E0,2.847958029E0
1.111673917E1,-4.743635559E-1,1.491498413E0,-1.723815308E0,2.328331487E0
1.112678017E1,2.478845215E-1,1.349144440E0,-3.140020294E0,3.426567510E0
1.113682117E1,8.363108826E-1,1.211730194E0,-4.896467743E0,5.113032595E0
1.114686217E1,8.824150085E-1,5.372328186E-1,-4.314178619E0,4.436148387E0
1.115690317E1,4.294569397E-1,-2.550695801E-1,-2.810405731E0,2.854448130E0
1.116694517E1,-1.029858398E-1,-8.931925964E-1,-1.654509430E0,1.883029620E0
1.117698617E1,-3.736230469E-1,-1.164578247E0,-8.077203369E-1,1.465690560E0
1.118702717E1,-4.962181091E-1,-1.340612183E0,-1.469943237E-1,1.437038889E0
1.119706817E1,-8.214916992E-1,-1.880838776E0,3.511697388E-1,2.082239971E0
1.120710917E1,-1.538051605E0,-3.462749176E0,1.081351318E0,3.940248123E0
1.121715117E1,-2.739453278E0,-6.746021576E0,1.558259583E0,7.445910575E0
1.122719217E1,-2.860551453E0,-1.089988358E1,-6.072871399E-1,1.128534511E1
1.123723317E1,-1.341959381E0,-1.515119293E1,-2.900668030E0,1.548461744E1
1.124727417E1,1.751358032E-2,-2.001413040E1,-2.580932922E0,2.017986465E1
1.125731517E1,1.736688538E0,-2.636901535E1,-8.433462524E-1,2.643959702E1
1.126735717E1,3.898942108E0,-3.555556183E1,2.423460388E-1,3.576951856E1
1.127739817E1,5.836662598E0,-4.383768906E1,-5.089416504E-3,4.422453661E1
1.128743917E1,7.460635529E0,-4.343607422E1,-3.231779480E0,4.419047437E1
1.129748017E1,7.005881195E0,-3.213861740E1,-3.918850708E0,3.312597909E1
1.130752217E1,5.080135803E0,-2.244372803E1,-1.155746613E0,2.304049604E1
1.131756317E1,4.621489563E0,-1.754127274E1,-2.303110657E0,1.828547876E1
1.132760417E1,5.233566742E0,-1.531540146E1,-4.607119446E0,1.682787248E1
1.133764517E1,6.639592896E0,-1.683818481E1,-5.183720398E0,1.882762913E1
1.134768617E1,8.033045197E0,-2.100042938E1,-4.522545319E0,2.293471747E1
1.135772817E1,8.697214050E0,-2.306089462E1,-4.388573914E0,2.503409623E1
1.136776917E1,7.948321381E0,-2.135040161E1,-4.873565369E0,2.329736254E1
1.137781017E1,6.796616364E0,-1.840707230E1,-5.484295349E0,2.037380180E1
1.138785117E1,6.019731903E0,-1.554921524E1,-4.938230896E0,1.738969210E1
1.139789217E1,4.957091675E0,-1.339324860E1,-3.150498505E0,1.462455150E1
1.140793417E1,3.172802124E0,-1.179562088E1,-1.927092590E0,1.236596260E1
1.141797517E1,1.375938721E0,-1.023436752E1,-9.627978516E-1,1.037123260E1
1.142801617E1,6.197113037E-2,-8.632997589E0,-7.544311523E-2,8.633549644E0
1.143805717E1,-9.515711975E-1,-6.884633331E0,6.405180359E-1,6.979536317E0
1.144809817E1,-1.723066864E0,-5.192402344E0,1.008901978E0,5.563082304E0
1.145814017E1,-2.326312408E0,-3.558999023E0,1.263372803E0,4.435573729E0
1.146818117E1,-2.754122772E0,-2.013612671E0,1.501078491E0,3.727340187E0
1.147822217E1,-3.118764496E0,-5.680686951E-1,1.798959045E0,3.644948240E0
1.148826317E1,-3.447331238E0,9.006770325E-1,2.190694427E0,4.182637189E0
1.149830417E1,-3.756737823E0,2.083666992E0,2.694696350E0,5.071107929E0
1.150834617E1,-4.122427368E0,2.907853088E0,3.308569794E0,6.032963705E0
1.151838717E1,-4.609813843E0,3.410507812E0,3.716770935E0,6.833471547E0
1.152842817E1,-4.556973724E0,3.332519989E0,3.103795624E0,6.442456540E0
1.153846917E1,-3.639681244E0,2.637066193E0,1.620829468E0,4.777916473E0
1.154851017E1,-2.319726105E0,1.682501221E0,2.800675964E-1,2.879301550E0
1.155855217E1,-1.348096619E0,1.087638245E0,-2.763253784E-1,1.754045940E0
1.156859317E1,-5.430706787E-1,9.321116638E-1,-2.335144043E-1,1.103760342E0
1.157863417E1,-4.730163574E-2,8.747808838E-1,-3.592529297E-1,9.468588632E-1
1.158867517E1,-5.897735596E-2,8.952882385E-1,-7.629634094E-1,1.177765903E0
1.159871617E1,-2.100132751E-1,1.020278320E0,-1.210532684E0,1.597016846E0
1.160875817E1,-1.692979431E-1,1.084494781E0,-1.746867371E0,2.063089027E0
1.161879917E1,4.423301697E-1,5.538482666E-1,-4.231550446E0,4.290503823E0
1.162884017E1,1.376836853E0,-1.316811676E0,-6.869065704E0,7.128375436E0
1.163888117E1,9.822573853E-1,-2.515818329E0,-5.145100708E0,5.810871942E0
1.164892317E1,2.435435486E-1,-2.356848907E0,-3.986060944E0,4.637103846E0
1.165896417E1,2.390528870E-1,-2.373614044E0,-4.154460754E0,4.790692442E0
1.166900517E1,3.499722290E-1,-3.341351624E0,-4.109254761E0,5.307832507E0
1.167904617E1,2.402503967E-1,-6.336772614E0,-3.765868835E0,7.375240708E0
1.168908717E1,4.272116089E-1,-1.050844757E1,-2.821033630E0,1.088890311E1
1.169912917E1,1.313817902E0,-1.777074554E1,-1.087189178E0,1.785238065E1
1.170917017E1,2.925366669E0,-3.024984512E1,2.546205139E-1,3.039203402E1
1.171921117E1,5.227878571E0,-4.258853668E1,3.582051086E-1,4.290970149E1
1.172925217E1,7.330106964E0,-4.728067932E1,2.965333557E-1,4.784643181E1
1.173929317E1,7.249125366E0,-3.969939468E1,8.369096375E-1,4.036449151E1
1.174933517E1,5.561534729E0,-3.081192627E1,1.651216278E0,3.135334088E1
1.175937617E1,4.456532593E0,-2.483455627E1,1.291065216E0,2.526425771E1
1.176941717E1,3.944447479E0,-2.185200851E1,4.114942932E-1,2.220896822E1
1.177945817E1,5.137765961E0,-2.289159668E1,6.271957397E-2,2.346115452E1
1.178949917E1,6.198310547E0,-2.489802429E1,5.836363220E-1,2.566459231E1
1.179954117E1,5.849086761E0,-2.434582260E1,3.053649902E-1,2.504045011E1
1.180958217E1,5.830225983E0,-2.116598511E1,-2.131268005E0,2.205748771E1
1.181962317E1,6.359225922E0,-1.782044220E1,-6.316714325E0,1.994765135E1
1.182966417E1,6.267017670E0,-1.565848801E1,-8.804391174E0,1.902579988E1
1.183970517E1,5.359604645E0,-1.387255188E1,-6.791526947E0,1.634924756E1
1.184974717E1,4.106560364E0,-1.219289474E1,-3.447331238E0,1.331970769E1
1.185978817E1,3.095263367E0,-1.050171158E1,-1.376687164E0,1.103457606E1
1.186982917E1,1.904040527E0,-8.838071136E0,-1.089733887E-1,9.041501366E0
1.187987017E1,6.075865173E-1,-6.736441498E0,6.249504089E-1,6.792596591E0
1.188991217E1,-6.544390869E-1,-4.364024963E0,7.451504517E-1,4.475293688E0
1.189995317E1,-1.655706940E0,-2.246079254E0,6.756948853E-1,2.871027876E0
1.190999417E1,-2.404449921E0,-5.406756592E-1,7.360194397E-1,2.572048640E0
1.192003517E1,-2.980901184E0,7.846682739E-1,1.038390656E0,3.252649892E0
1.193007617E1,-3.728895721E0,1.946552124E0,1.400487671E0,4.433406612E0
1.194011817E1,-4.991220703E0,2.926863556E0,1.984573059E0,6.116971850E0
1.195015917E1,-7.122339020E0,3.774401093E0,2.366578674E0,8.400863726E0
1.196020017E1,-7.822133789E0,4.011358337E0,1.551373901E0,8.926563376E0
1.197024117E1,-7.117399292E0,3.821553040E0,4.565505981E-1,8.091358277E0
1.198028217E1,-5.120252380E0,3.410657501E0,-4.114942932E-1,6.165946528E0
1.199032417E1,-3.208278351E0,3.265459442E0,-2.140399017E0,5.053472400E0
1.200036517E1,-1.501228180E0,3.289858704E0,-4.048331451E0,5.428245009E0
1.201040617E1,-1.146615601E-1,2.906206512E0,-5.104085999E0,5.874595939E0
1.202044717E1,5.992039490E-1,1.878593445E0,-5.135221252E0,5.500786854E0
1.203048917E1,5.830375671E-1,7.671546936E-1,-4.435576172E0,4.539030194E0
1.204053017E1,1.899549866E-1,-1.011895752E-1,-2.966830444E0,2.974626886E0
1.205057117E1,-3.411405945E-1,-7.084767151E-1,-7.485932922E-1,1.085683231E0
1.206061217E1,-5.548960876E-1,-9.837542725E-1,1.023122406E0,1.523962465E0
1.207065317E1,-5.384303284E-1,-1.300046539E0,1.857936401E0,2.330655679E0
1.208069517E1,-4.882846069E-1,-1.715582428E0,2.002386017E0,2.681640297E0
1.209073617E1,-3.376977539E-1,-1.958826599E0,1.673519897E0,2.598405331E0
1.210077717E1,-1.727407837E-1,-2.154320068E0,1.089883575E0,2.420491798E0
1.211081817E1,-4.146377563E-2,-2.356848907E0,5.258564758E-1,2.415156527E0
1.212085917E1,-5.837860107E-2,-2.891087952E0,-2.158511353E-1,2.899722283E0
1.213090117E1,-7.101232910E-1,-5.847290497E0,-2.569706268E0,6.426388686E0
1.214094217E1,-9.364526367E-1,-7.948022003E0,-5.127138062E0,9.504501144E0
1.215098317E1,-4.526586914E-1,-7.138954468E0,-1.907034302E0,7.403131136E0
1.216102417E1,3.170407104E-1,-9.333540802E0,2.799179077E-2,9.338965802E0
1.217106617E1,9.427395630E-1,-1.489821899E1,5.281018066E-1,1.493735514E1
1.218110717E1,1.883682861E0,-2.452784409E1,1.250349884E0,2.463182436E1
1.219114817E1,3.284170532E0,-3.866339905E1,1.205742645E0,3.882136032E1
1.220118917E1,4.699926453E0,-5.156701584E1,5.128335571E-1,5.178329296E1
1.221123017E1,5.328020325E0,-5.394646774E1,-3.023712158E-2,5.420894849E1
1.222127217E1,6.094875641E0,-4.475737656E1,-1.927990723E-1,4.517086934E1
1.223131317E1,8.684041443E0,-3.273617477E1,3.652404785E-2,3.386843735E1
1.224135417E1,1.005983047E1,-2.926085175E1,3.286415863E0,3.111588281E1
1.225139517E1,7.187154236E0,-2.504352173E1,-1.233914062E1,2.882858925E1
1.226143617E1,9.994715881E0,-1.875869110E1,-2.338646759E1,3.160236864E1
1.227147817E1,1.493354553E1,-1.653401733E1,-2.297916458E1,3.200666362E1
1.228151917E1,1.196222443E1,-1.884431305E1,-8.073311462E0,2.373565473E1
1.229156017E1,7.844138031E0,-1.769874527E1,-5.105882263E-1,1.936586652E1
1.230160117E1,5.365143127E0,-1.387629410E1,1.964664459E0,1.500653875E1
1.231164317E1,3.861070862E0,-1.066936295E1,4.080813904E0,1.205803533E1
1.232168417E1,2.412084045E0,-7.929310913E0,5.845045166E0,1.014182794E1
1.233172517E1,1.361718292E0,-5.367388458E0,5.731431427E0,7.969469353E0
1.234176617E1,1.092128906E0,-3.727398834E0,5.985303497E0,7.135131784E0
1.235180717E1,1.092577972E0,-2.595752106E0,7.595205688E0,8.100543505E0
1.236184917E1,1.137334900E0,-1.574725342E0,7.873477020E0,8.109558001E0
1.237189017E1,8.333171082E-1,-5.981561279E-1,6.125412140E0,6.210707048E0
1.238193117E1,6.004014587E-1,7.957452393E-1,3.742367706E0,3.872855335E0
1.239197217E1,1.470092926E0,5.561085663E0,-4.831353149E0,7.511911888E0
1.240201417E1,2.221679993E0,8.720565491E0,-1.567495377E1,1.807452074E1
1.241205517E1,1.111139374E0,7.366032257E0,-9.199270020E0,1.183721381E1
1.242209617E1,2.968327332E-1,5.201982422E0,-4.389322357E0,6.812846802E0
1.243213717E1,-7.159611511E-1,3.327729950E0,-1.511556702E0,3.724404738E0
1.244217817E1,-1.130000153E0,2.065704346E0,1.085243225E-1,2.357077071E0
1.245222017E1,-1.482816467E0,1.737886047E0,5.167254639E-1,2.342220697E0
1.246226117E1,-1.574276276E0,1.545536041E0,9.753717041E-1,2.412131300E0
1.247230217E1,-1.507515106E0,9.681866455E-1,1.378333740E0,2.260484699E0
1.248234317E1,-1.305585022E0,8.532257080E-3,1.745819550E0,2.180025447E0
1.249238417E1,-9.861492920E-1,-8.907975769E-1,2.077978821E0,2.466577939E0
1.250242617E1,-8.006849670E-1,-1.685345306E0,2.385140076E0,3.028263264E0
1.251246717E1,-8.464897156E-1,-2.175126801E0,2.818488922E0,3.659453681E0
1.252250817E1,-1.211580505E0,-2.176473999E0,3.009641418E0,3.906777170E0
1.253254917E1,-1.683698730E0,-1.676813049E0,2.615061951E0,3.533425027E0
1.254259117E1,-2.008074188E0,-9.942324829E-1,1.921703796E0,2.951915591E0
1.255263217E1,-2.292183380E0,-2.471360779E-1,1.309327240E0,2.651323954E0
1.256267317E1,-2.692451019E0,3.719764709E-1,1.324595490E0,3.023609134E0
1.257271417E1,-5.141208801E0,-7.152127075E-1,2.957849121E0,5.974314068E0
1.258275517E1,-5.620811462E0,-6.130950623E0,-6.659052429E0,1.065481376E1
1.259279717E1,-4.092190247E0,-8.531508636E0,-1.106319397E1,1.455771003E1
1.260283817E1,-1.704505463E0,-8.525970154E0,-8.604107666E0,1.223225959E1
1.261287917E1,4.572990417E-1,-8.943601685E0,-5.458698578E0,1.048782740E1
1.262292017E1,2.176473999E0,-1.255978180E1,-4.020489349E0,1.336598266E1
1.263296163E1,3.691922607E0,-2.010544052E1,-2.872077484E0,2.064238020E1
1.264300262E1,5.059029694E0,-2.934063583E1,-1.369202728E0,2.980505676E1
1.265304362E1,6.647526398E0,-4.055965576E1,-3.450025635E0,4.124533864E1
1.266308462E1,7.342680817E0,-5.128485260E1,-8.280780029E0,5.246543992E1
1.267312562E1,5.871240692E0,-4.935252090E1,-5.607040100E0,5.001581435E1
1.268316763E1,4.096980286E0,-3.596376297E1,-1.883533173E0,3.624534717E1
1.269320862E1,4.350253601E0,-2.720173370E1,-2.228266296E0,2.763736951E1
1.270324962E1,4.818330231E0,-2.309786774E1,-2.432890778E0,2.372017617E1
1.271329062E1,4.997956696E0,-2.044433578E1,-2.460882568E0,2.118977064E1
1.272333262E1,4.855453033E0,-1.915985687E1,-2.255809021E0,1.989382351E1
1.273337363E1,5.237308960E0,-1.866693192E1,-2.081421661E0,1.949912994E1
1.274341462E1,6.171516266E0,-1.829300949E1,-1.935026093E0,1.940273525E1
1.275345562E1,6.277346191E0,-1.770802597E1,-1.679058380E0,1.886262166E1
1.276349662E1,5.908513184E0,-1.600890930E1,-1.811682587E0,1.716035835E1
1.277353862E1,5.336103516E0,-1.296079788E1,-2.846929779E0,1.430249250E1
1.278357963E1,4.413871307E0,-1.040770706E1,-4.155059509E0,1.204438233E1
1.279362062E1,3.588487701E0,-8.696315918E0,-3.499871979E0,1.003754245E1
1.280366162E1,2.662064209E0,-7.099885712E0,-1.930086365E0,7.824333604E0
1.281370362E1,1.395847321E0,-5.641019440E0,-1.304686890E0,5.955812114E0
1.282374462E1,3.278182983E-1,-3.671564941E0,-1.599573669E0,4.018269513E0
1.283378563E1,-6.370751953E-1,-1.350491638E0,-1.282832336E0,1.968591190E0
1.284382662E1,-1.725910950E0,4.716691589E-1,-2.829116821E-1,1.811430214E0
1.285386762E1,-2.469115448E0,1.523382111E0,6.072871399E-1,2.964122437E0
1.286390962E1,-2.958747253E0,2.329006805E0,1.136137390E0,3.933098801E0
1.287395062E1,-3.573668518E0,2.995420990E0,1.429527283E0,4.877212507E0
1.288399162E1,-4.597389679E0,3.724405060E0,1.782792664E0,6.179444521E0
1.289403263E1,-5.955665131E0,4.186344452E0,1.592388611E0,7.451921129E0
1.290407462E1,-6.759493561E0,3.723506927E0,8.108638000E-1,7.759687954E0
1.291411562E1,-7.070097656E0,3.010838928E0,4.990621948E-1,7.700681463E0
1.292415662E1,-6.881340179E0,2.178120575E0,7.541317749E-1,7.257118343E0
1.293419762E1,-5.932613068E0,1.541943512E0,4.505630493E-1,6.146258591E0
1.294423863E1,-4.072880402E0,1.219963074E0,-1.342707825E-1,4.253785762E0
1.295428062E1,-1.914518738E0,9.888436890E-1,-4.123924255E-1,2.193914618E0
1.296432162E1,7.858657837E-2,9.925859070E-1,-8.337661743E-1,1.298679586E0
1.297436262E1,3.963757324E-1,9.234297180E-1,-2.083367615E0,2.313062209E0
1.298440362E1,-3.043171692E-1,7.701484680E-1,-3.427722015E0,3.526331779E0
1.299444562E1,-5.646258545E-1,7.732919312E-1,-4.913232880E0,5.005660805E0
1.300448662E1,-5.433700562E-2,3.769161987E-1,-5.495222626E0,5.508401768E0
1.301452762E1,5.384303284E-1,-2.598596191E-1,-4.634063416E0,4.672470222E0
1.302456862E1,5.363346863E-1,-8.005352783E-1,-2.822231140E0,2.982197216E0
1.303461062E1,4.064048767E-1,-1.535057831E0,-1.147962799E0,1.959435137E0
1.304465162E1,1.496887207E-1,-2.409689026E0,-3.682342529E-2,2.414614644E0
1.305469262E1,9.086105347E-2,-3.374432831E0,-5.104385376E-2,3.376041785E0
1.306473362E1,6.387217712E-1,-5.359005890E0,-1.968855743E0,5.744850091E0
1.307477462E1,2.071242828E0,-1.129491211E1,-9.563312988E0,1.494396339E1
1.308481662E1,3.745211792E0,-1.930610275E1,-1.567091217E1,2.514616677E1
1.309485762E1,3.384461975E0,-2.029898804E1,-5.728737030E0,2.136169296E1
1.310489862E1,2.968027954E0,-2.252455994E1,1.692680054E0,2.278223334E1
1.311493962E1,3.985312500E0,-3.103151962E1,3.604354706E0,3.149332149E1
1.312498162E1,5.347479858E0,-3.924419128E1,4.860841827E0,3.990400824E1
1.313502262E1,6.851402435E0,-4.400129883E1,4.525838470E0,4.476091183E1
1.314506362E1,8.095764771E0,-4.368171341E1,1.653461609E0,4.445635420E1
1.315510462E1,7.373965759E0,-3.587469818E1,-3.649411011E-1,3.662652758E1
1.316514662E1,5.874384155E0,-2.676030167E1,4.596940613E-1,2.740134035E1
1.317518762E1,5.920937347E0,-2.145937500E1,-6.318360901E-1,2.227019289E1
1.318522862E1,6.690786438E0,-1.857711868E1,-2.473905487E0,1.989965251E1
1.319526962E1,7.390880585E0,-1.799557800E1,-4.019291840E0,1.986506105E1
1.320531062E1,8.159831543E0,-1.858580063E1,-6.272556152E0,2.124522997E1
1.321535262E1,8.953930206E0,-1.922392365E1,-9.023834839E0,2.304694560E1
1.322539362E1,8.976982269E0,-1.875824203E1,-1.000235001E1,2.307606683E1
1.323543462E1,7.234755249E0,-1.647114807E1,-6.640940094E0,1.917661304E1
1.324547562E1,5.010979614E0,-1.404499329E1,-3.058290253E0,1.522251268E1
1.325551762E1,3.443888397E0,-1.185938828E1,-1.282083893E0,1.241568350E1
1.326555862E1,2.160606995E0,-9.921817474E0,2.686912537E-1,1.015789740E1
1.327559962E1,7.930508423E-1,-8.145012360E0,1.445543976E0,8.310219814E0
1.328564062E1,-3.511697388E-1,-6.176306305E0,1.905238037E0,6.473021840E0
1.329568162E1,-1.087937622E0,-4.115841064E0,1.685494995E0,4.578716995E0
1.330572362E1,-1.642983398E0,-2.168839874E0,1.432820435E0,3.075099225E0
1.331576462E1,-2.179467773E0,-3.860472107E-1,1.040037231E0,2.445565306E0
1.332580562E1,-2.631078644E0,1.033151550E0,9.087602234E-1,2.969145012E0
1.333584662E1,-3.047063599E0,2.089504852E0,1.017583923E0,3.832245314E0
1.334588863E1,-3.509751434E0,2.888243866E0,1.297052765E0,4.726801628E0
1.335592962E1,-4.703369293E0,3.999682617E0,1.566492462E0,6.369697197E0
1.336597062E1,-6.269263000E0,5.016817474E0,2.288441162E0,8.349196314E0
1.337601162E1,-7.051087189E0,5.452860718E0,2.568209381E0,9.276164077E0
1.338605362E1,-6.676865387E0,5.215454407E0,1.619482269E0,8.625788015E0
1.339609463E1,-5.549559631E0,4.038601685E0,3.805087280E-1,6.874060122E0
1.340613562E1,-3.991000671E0,2.348915405E0,-1.591490479E0,4.896767493E0
1.341617662E1,-2.605930939E0,9.095086670E-1,-3.603606262E0,4.539169546E0
1.342621862E1,-1.492246857E0,3.040177917E-1,-3.426973572E0,3.750116713E0
1.343625962E1,-6.586303711E-1,2.189945984E-1,-3.032843170E0,3.111252207E0
1.344630063E1,-7.484436035E-2,1.678010559E-1,-3.246598663E0,3.251793621E0
1.345634162E1,5.554948425E-1,3.212319946E-1,-3.977079620E0,4.028514220E0
1.346638262E1,1.023122406E0,3.647914124E-1,-4.226161652E0,4.363518596E0
1.347642462E1,1.045276337E0,2.296224976E-1,-2.998414764E0,3.183680293E0
1.348646562E1,7.518864441E-1,-3.742218018E-3,-1.542093201E0,1.715633606E0
1.349650663E1,4.659809875E-1,-3.881428528E-1,-1.055455170E0,1.217283357E0
1.350654762E1,4.673281860E-1,-1.106948090E0,-1.688937836E0,2.072737494E0
1.351658962E1,5.240602112E-1,-2.247576141E0,-3.320095825E0,4.043423538E0
1.352663062E1,3.677851868E-1,-3.203787689E0,-4.378544769E0,5.437938561E0
1.353667162E1,4.192781067E-1,-4.384083252E0,-5.037474518E0,6.691197920E0
1.354671263E1,6.194119263E-1,-6.706803131E0,-5.753285980E0,8.858057289E0
1.355675462E1,4.236190796E-1,-9.570348358E0,-4.072880402E0,1.040958095E1
1.356679562E1,6.390211487E-1,-1.488100479E1,-1.916614380E0,1.501752517E1
1.357683662E1,1.250649261E0,-2.261152908E1,7.759863281E-1,2.265938053E1
1.358687762E1,2.389780426E0,-3.319676697E1,2.544857941E0,3.337982459E1
1.359691962E1,3.801195374E0,-4.388259567E1,3.823498993E0,4.421255968E1
1.360696062E1,5.221292267E0,-5.204152908E1,3.499871979E0,5.241976484E1
1.361700162E1,6.101761322E0,-5.213658142E1,2.144889679E0,5.253622717E1
1.362704262E1,5.682034149E0,-4.297159012E1,1.090931396E0,4.335934963E1
1.363708475E1,5.202281799E0,-2.976769775E1,-8.408015442E-1,3.023055594E1
1.364712675E1,5.489833832E0,-1.995545242E1,-4.087250519E0,2.109653938E1
1.365716775E1,6.090235291E0,-1.493504242E1,-7.142247620E0,1.763967571E1
1.366720875E1,6.703959045E0,-1.400607422E1,-8.069269867E0,1.749932279E1
1.367724975E1,7.469317474E0,-1.675540695E1,-7.342381439E0,1.975967942E1
1.368729175E1,7.992180176E0,-2.009271698E1,-4.918471985E0,2.217619413E1
1.369733275E1,7.478598175E0,-2.076646591E1,-2.390977936E0,2.220117818E1
1.370737375E1,5.543871460E0,-1.913426010E1,-1.054257660E0,1.994908217E1
1.371741475E1,3.054398346E0,-1.653087387E1,-4.119433594E-1,1.681573185E1
1.372745675E1,1.408421173E0,-1.373483826E1,3.694317627E-1,1.381180336E1
1.373749775E1,9.400451660E-2,-1.097876953E1,6.758445740E-1,1.099995378E1
1.374753875E1,-9.044192505E-1,-8.238567810E0,5.773493958E-1,8.308146969E0
1.375757975E1,-1.582808533E0,-5.740263062E0,3.894900513E-1,5.967210853E0
1.376762175E1,-1.982627106E0,-3.664529572E0,3.537144470E-1,4.181471168E0
1.377766275E1,-2.148482208E0,-1.978735199E0,5.442681885E-1,2.971127168E0
1.378770375E1,-2.192341003E0,-5.260061646E-1,7.414082336E-1,2.373336834E0
1.379774475E1,-2.447410583E0,7.656578064E-1,9.403445435E-1,2.731354664E0
1.380778675E1,-2.721041565E0,1.767075348E0,1.284478912E0,3.489485429E0
1.381782775E1,-2.907254333E0,2.359393616E0,1.596879272E0,4.070490069E0
1.382786875E1,-3.307971039E0,2.762954407E0,1.486558685E0,4.559215522E0
1.383790975E1,-3.414998474E0,3.403472443E0,1.015039215E0,4.927082692E0
1.384795075E1,-3.231480103E0,3.771706696E0,4.216731262E-1,4.984580552E0
1.385799275E1,-2.974913635E0,4.120631104E0,-9.047186279E-1,5.162192134E0
1.386803375E1,-2.524051208E0,5.090763702E0,-2.854264526E0,6.358736947E0
1.387807475E1,-1.873054962E0,5.424120483E0,-3.776347046E0,6.869513441E0
1.388811575E1,-1.332678680E0,4.499193878E0,-3.860172729E0,6.076159274E0
1.389815775E1,-8.258326721E-1,2.912044373E0,-3.507356415E0,4.632877189E0
1.390819875E1,-5.179229736E-1,1.537153473E0,-2.816243591E0,3.249971226E0
1.391823975E1,-4.221221924E-1,5.882766724E-1,-2.096989288E0,2.218472597E0
1.392828075E1,-4.772076416E-1,-2.405497742E-1,-1.185085602E0,1.300007389E0
1.393832275E1,-6.195616150E-1,-9.107061768E-1,-2.261796570E-1,1.124455234E0
1.394836375E1,-7.165599060E-1,-1.314716034E0,4.326004028E-1,1.558550435E0
1.395840475E1,-7.027885437E-1,-1.492546234E0,7.647596741E-1,1.818368323E0
1.396844575E1,-7.412585449E-1,-1.549427948E0,8.634045410E-1,1.922409581E0
1.397848775E1,-8.005352783E-1,-1.454974365E0,8.819659424E-1,1.880338017E0
1.398852875E1,-1.162781982E0,-1.410816193E0,6.950047302E-1,1.955887482E0
1.399856975E1,-2.366728363E0,-2.040406952E0,3.182382202E-1,3.141009271E0
1.400861075E1,-2.956052856E0,-3.327131195E0,-1.320404205E0,4.642361225E0
1.401865275E1,-2.947670288E0,-4.436324615E0,-3.641327820E0,6.452054286E0
1.402869375E1,-1.961071930E0,-5.678890686E0,-5.579048309E0,8.198864713E0
1.403873475E1,-9.539662170E-1,-5.608087921E0,-3.190764771E0,6.522398447E0
1.404877575E1,-4.758604431E-1,-1.050246002E1,-2.012415161E0,1.070410783E1
1.405881675E1,1.031654663E0,-2.264550842E1,-2.568808136E0,2.281407763E1
1.406885875E1,4.076173553E0,-3.753699142E1,-2.266287231E0,3.782561267E1
1.407889975E1,7.959997101E0,-5.593044205E1,-5.066813507E0,5.672079425E1
1.408894075E1,1.096604599E1,-6.399851440E1,-6.672823792E0,6.527319961E1
1.409898175E1,1.072055649E1,-5.262666229E1,-4.033362579E0,5.385874051E1
1.410902375E1,7.700885925E0,-3.275219147E1,-4.254153442E0,3.391323505E1
1.411906475E1,5.686973877E0,-2.172626999E1,-3.815565491E0,2.278005750E1
1.412910575E1,5.674400024E0,-1.804377777E1,-2.788102112E0,1.911936833E1
1.413914675E1,6.384223938E0,-1.790516602E1,-2.423310699E0,1.916313440E1
1.414918875E1,6.954088898E0,-1.988659561E1,-2.046843567E0,2.116661536E1
1.415922975E1,7.063361664E0,-2.066901855E1,-7.104226685E-1,2.185415536E1
1.416927075E1,7.011419678E0,-1.941492645E1,2.305206299E-1,2.064346179E1
1.417931175E1,6.733148346E0,-1.675435913E1,6.301895142E-2,1.805679395E1
1.418935375E1,5.868246918E0,-1.344863342E1,-6.011499023E-1,1.468548413E1
1.419939475E1,4.434079285E0,-1.039273819E1,-4.203259277E-1,1.130693327E1
1.420943575E1,2.903661804E0,-7.638765106E0,3.938310242E-1,8.181508852E0
1.421947675E1,1.671573944E0,-4.974156189E0,4.544549561E-1,5.267154692E0
1.422951875E1,7.020401001E-1,-2.460583191E0,-2.516267395E-1,2.571117648E0
1.423955975E1,-1.020877075E-1,-5.173242188E-1,-1.523232422E0,1.611919123E0
1.424960075E1,-9.551637268E-1,9.653425598E-1,-3.247646484E0,3.520146544E0
1.425964175E1,-2.046394501E0,2.032772827E0,-3.979624329E0,4.915008201E0
1.426968375E1,-3.127147064E0,2.030078430E0,-2.825075226E0,4.677747025E0
1.427972475E1,-3.742367706E0,1.666933594E0,-1.287622375E0,4.294409743E0
1.428976575E1,-3.765719147E0,1.407672729E0,-1.492396545E-1,4.022990887E0
1.429980675E1,-3.445684662E0,1.283580780E0,5.769003296E-1,3.721980172E0
1.430984875E1,-3.055296478E0,1.172062683E0,9.394464111E-1,3.404574432E0
1.431988975E1,-2.673141174E0,9.657916260E-1,1.097218323E0,3.046690869E0
1.432993075E1,-2.495610352E0,6.182144165E-1,1.010997620E0,2.762675565E0
1.433997175E1,-2.606679382E0,2.862048340E-1,7.964936829E-1,2.740637297E0
1.435001375E1,-3.067121887E0,-2.791694641E-1,3.046165466E-1,3.094828509E0
1.436005475E1,-3.106190643E0,-7.054829407E-1,-1.532812500E-1,3.188984420E0
1.437009575E1,-2.701282654E0,-4.601431274E-1,1.306782532E-1,2.743307580E0
1.438013675E1,-2.227068787E0,2.915936279E-1,2.835104370E-1,2.263899378E0
1.439017875E1,-1.757345581E0,1.046024780E0,9.954299927E-2,2.047520486E0
1.440021975E1,-1.533261566E0,1.642983398E0,-1.181493073E0,2.538939022E0
1.441026075E1,-1.267863464E0,2.300266571E0,-2.957400055E0,3.955365868E0
1.442030175E1,-9.710307312E-1,2.022294617E0,-3.046464844E0,3.783321853E0
1.443034375E1,-8.161029053E-1,9.611512756E-1,-2.596201172E0,2.886190612E0
1.444038475E1,-1.333277435E0,-4.808001709E-1,-2.118245087E0,2.548678044E0
1.445042575E1,-1.700763245E0,-2.017654266E0,-1.670226746E0,3.123008443E0
1.446046675E1,-1.241368561E0,-2.953208771E0,-1.834584961E0,3.691631066E0
1.447050875E1,-7.376660156E-1,-4.305047607E0,-2.819985809E0,5.199029334E0
1.448054975E1,-3.305126953E-1,-7.890990601E0,-6.322252808E0,1.011671151E1
1.449059075E1,-6.960525513E-2,-1.233584747E1,-7.945028229E0,1.467315410E1
1.450063175E1,1.182540894E-2,-1.719070175E1,-5.939199371E0,1.818775565E1
1.451067275E1,1.114731903E0,-2.434477478E1,-5.917045441E0,2.507831958E1
1.452071475E1,2.944377136E0,-2.907703400E1,-3.276386719E0,2.940880774E1
1.453075575E1,4.497247925E0,-3.330484222E1,2.894979858E-1,3.360835556E1
1.454079675E1,5.531147919E0,-3.698943008E1,3.197650452E0,3.753713500E1
1.455083875E1,6.031707001E0,-3.958742752E1,3.249293060E0,4.017591085E1
1.456087975E1,6.047124939E0,-3.883149948E1,-6.408174133E-1,3.930475441E1
1.457092075E1,5.654641113E0,-3.277674042E1,-2.542612610E0,3.335797592E1
1.458096175E1,4.773722992E0,-2.723062363E1,-1.010398865E0,2.766434890E1
1.459100275E1,4.838238831E0,-2.369961639E1,-8.614585876E-1,2.420377002E1
1.460104475E1,5.501808929E0,-2.070554260E1,-1.394949188E0,2.146940333E1
1.461108575E1,6.061644745E0,-1.905492508E1,-1.668729858E0,2.006535238E1
1.462112675E1,6.751709747E0,-1.863280289E1,-2.580483856E0,1.998564047E1
1.463116667E1,7.882608032E0,-1.769320679E1,-5.740712128E0,2.020249617E1
1.464120867E1,8.233328705E0,-1.562840057E1,-9.618847504E0,2.011359822E1
1.465124967E1,6.672374725E0,-1.433284470E1,-8.494236145E0,1.794723013E1
1.466129067E1,5.242548065E0,-1.289703049E1,-4.005670166E0,1.448665245E1
1.467133167E1,3.878584442E0,-1.056053925E1,-2.727328491E-1,1.125356786E1
1.468137367E1,2.182461548E0,-8.259075165E0,7.978408813E-2,8.542940155E0
1.469141467E1,8.173004150E-1,-6.111640778E0,-2.275268555E-2,6.166088764E0
1.470145567E1,-5.267546082E-1,-3.483406219E0,2.106120300E-1,3.529298335E0
1.471149667E1,-1.967508545E0,-1.072519684E0,6.626719666E-1,2.336776087E0
1.472153867E1,-2.965183868E0,4.394860840E-1,1.071022797E0,3.183167168E0
1.473157967E1,-3.379372559E0,1.210981750E0,1.175954590E0,3.777499820E0
1.474162067E1,-3.770658875E0,1.919009399E0,1.120869141E0,4.376849672E0
1.475166167E1,-4.304448853E0,2.545157318E0,1.207538910E0,5.144342127E0
1.476170367E1,-5.317542114E0,2.966680756E0,1.287023621E0,6.223654766E0
1.477174467E1,-6.213429108E0,2.976859589E0,1.705702972E0,7.097733224E0
1.478178567E1,-6.931934967E0,2.454595642E0,2.458936615E0,7.753910718E0
1.479182667E1,-7.419171753E0,1.943708038E0,3.036884766E0,8.248925961E0
1.480186867E1,-6.266867981E0,1.808688812E0,1.880689087E0,6.788371009E0
1.481190967E1,-3.475772095E0,1.836530914E0,1.368154907E-1,3.933516993E0
1.482195067E1,-1.288819885E0,1.564696198E0,-4.194277954E-1,2.070084675E0
1.483199167E1,-1.971400452E-1,1.177002411E0,-5.980064392E-1,1.334844775E0
1.484203367E1,6.616241455E-2,9.656419373E-1,-1.015637970E0,1.402983358E0
1.485207467E1,4.544549561E-1,1.773212585E0,-3.926784210E0,4.332487324E0
1.486211567E1,5.845344543E-1,2.565514984E0,-7.241042175E0,7.704300062E0
1.487215767E1,-2.055226135E-1,1.765279083E0,-5.438340912E0,5.721363619E0
1.488219867E1,-1.000818787E0,3.579057312E-1,-3.184028778E0,3.356750514E0
1.489223967E1,-1.363963623E0,-6.447093201E-1,-1.802401886E0,2.350467917E0
1.490228067E1,-1.335971832E0,-1.053509216E0,-5.804928589E-1,1.797685836E0
1.491232267E1,-1.249900818E0,-1.632505188E0,1.845661926E-1,2.064313426E0
1.492236367E1,-1.537003784E0,-2.438878326E0,7.930508423E-1,2.989889256E0
1.493240467E1,-2.585722961E0,-3.797602844E0,1.819915466E0,4.941643745E0
1.494244567E1,-3.006947021E0,-6.825057220E0,6.792874146E-1,7.488963069E0
1.495248767E1,-1.505868530E0,-1.575234283E1,-9.387428741E0,1.839912398E1
1.496252867E1,2.273771667E-1,-2.144395706E1,-9.717342682E0,2.354403839E1
1.497256967E1,1.651216278E0,-2.403940979E1,-3.722010040E0,2.438181898E1
1.498261067E1,3.729943542E0,-3.142579971E1,-2.222428436E0,3.172432118E1
1.499265267E1,6.325545959E0,-3.797797440E1,-2.019749908E0,3.855409784E1
1.500269367E1,9.022637329E0,-4.266353073E1,-7.190447388E0,4.419601082E1
1.501273467E1,1.120749390E1,-4.385370575E1,-9.845925293E0,4.632167605E1
1.502277567E1,9.413923645E0,-4.020983322E1,-1.229992218E0,4.131543933E1
1.503281767E1,7.748486938E0,-3.410672470E1,3.276686096E-1,3.497735105E1
1.504285867E1,7.485932922E0,-2.542118637E1,-3.927832031E-1,2.650339953E1
1.505289967E1,7.216193848E0,-1.931613190E1,1.026864624E-1,2.062030430E1
1.506294067E1,7.048841858E0,-1.609408218E1,1.555714874E0,1.763876134E1
1.507298267E1,6.966213684E0,-1.441981384E1,2.624642029E0,1.622799772E1
1.508302367E1,6.803352356E0,-1.331466202E1,2.894830170E0,1.522976919E1
1.509306467E1,6.483018494E0,-1.220681580E1,2.517165527E0,1.404891465E1
1.510310567E1,5.926326141E0,-1.097502731E1,2.188748474E0,1.266345869E1
1.511314767E1,4.965623932E0,-9.680219879E0,1.505868530E0,1.098324715E1
1.512318867E1,3.752845917E0,-8.656648407E0,-4.567002869E-1,9.446162674E0
1.513322967E1,2.543810120E0,-7.578141174E0,-2.292033691E0,8.315804954E0
1.514327067E1,1.172661438E0,-6.130501556E0,-2.548001404E0,6.741698253E0
1.515331267E1,-3.290158081E-1,-4.109105072E0,-2.385738831E0,4.762850582E0
1.516335367E1,-1.867217102E0,-1.751507721E0,-2.164498901E0,3.352511670E0
1.517339467E1,-3.297792206E0,2.989283752E-1,-1.392254791E0,3.592097578E0
1.518343567E1,-4.258793793E0,1.375938721E0,-2.821632385E-1,4.484433969E0
1.519347767E1,-4.672383728E0,1.635948029E0,7.268884277E-1,5.003584959E0
1.520351867E1,-5.228627014E0,2.071392517E0,1.381776581E0,5.791244593E0
1.521355967E1,-5.986051941E0,2.623444519E0,1.407373352E0,6.685505122E0
1.522360067E1,-6.198160858E0,2.771037598E0,9.404942322E-1,6.854223281E0
1.523364267E1,-6.347400513E0,2.093845825E0,4.480183411E-1,6.698836021E0
1.524368367E1,-6.093977509E0,7.021897888E-1,4.311035156E-2,6.134451147E0
1.525372467E1,-5.980812836E0,-7.559280396E-1,-9.009764099E-1,6.095351333E0
1.526376567E1,-5.770949249E0,-1.550775146E0,-2.851869507E0,6.621323016E0
1.527380767E1,-4.425097961E0,-7.563771057E-1,-3.071612549E0,5.439522217E0
1.528384867E1,-2.682571564E0,4.704716492E-1,-2.606080627E0,3.769507926E0
1.529388967E1,-1.507964172E0,1.164578247E0,-2.226619720E0,2.930534732E0
1.530393167E1,-9.331594849E-1,1.409319305E0,-1.871408386E0,2.521732911E0
1.531397267E1,-5.013075256E-1,1.344653778E0,-1.513802032E0,2.085904986E0
1.532401367E1,7.289840698E-2,1.091979218E0,-1.696871338E0,2.019184273E0
1.533405467E1,1.089434509E0,6.029461670E-1,-3.441044312E0,3.659398528E0
1.534409667E1,2.556383972E0,-1.329086151E0,-5.772895203E0,6.451967764E0
1.535413767E1,2.115251312E0,-3.829187164E0,-3.822900238E0,5.809606586E0
1.536417867E1,9.096583557E-1,-4.191583557E0,-2.293081512E0,4.863648205E0
1.537421967E1,3.854484558E-1,-4.934488678E0,-2.202370148E0,5.417396357E0
1.538426167E1,1.173559570E-1,-8.261320496E0,-2.046693878E0,8.511882552E0
1.539430267E1,1.041833496E-1,-1.577584396E1,-2.970422974E0,1.605339589E1
1.540434367E1,1.661095734E0,-2.696791992E1,-7.530689850E0,2.804887223E1
1.541438467E1,4.473297729E0,-3.300336914E1,-6.379134521E0,3.391056066E1
1.542442667E1,6.480174408E0,-3.802273132E1,-1.557660828E0,3.860242304E1
1.543446767E1,8.404123535E0,-4.580190445E1,5.822891235E-1,4.657019223E1
1.544450867E1,1.035801041E1,-4.960983582E1,-5.155279541E-1,5.068224500E1
1.545454967E1,9.813592529E0,-4.102129578E1,-6.116281128E-1,4.218325965E1
1.546459167E1,6.608008575E0,-2.895473831E1,5.842350769E-1,2.970494872E1
1.547463267E1,5.418132935E0,-2.213911148E1,8.403524780E-1,2.280795067E1
1.548467367E1,5.521567841E0,-1.787807236E1,7.393125916E-1,1.872591161E1
1.549471467E1,6.403384094E0,-1.597702560E1,2.652484131E-1,1.721450062E1
1.550475667E1,7.539671173E0,-1.536569687E1,-1.054407349E0,1.714826687E1
1.551479767E1,8.677155762E0,-1.450244202E1,-3.557352448E0,1.727045492E1
1.552483867E1,9.555229797E0,-1.294582901E1,-6.283333740E0,1.727359801E1
1.553487967E1,9.340875549E0,-1.142933258E1,-6.132447510E0,1.598400800E1
1.554492167E1,7.591463470E0,-1.087683151E1,-3.240311737E0,1.365413496E1
1.555496267E1,5.199288025E0,-1.019874161E1,-4.173321533E-1,1.145517754E1
1.556500367E1,3.288960571E0,-8.684340820E0,9.632469177E-1,9.336106348E0
1.557504567E1,1.557810516E0,-6.480922852E0,9.918374634E-1,6.738907639E0
1.558508667E1,-2.513273621E-1,-3.789519653E0,6.068380737E-1,3.846020943E0
1.559512767E1,-2.138303375E0,-9.882449341E-1,5.263055420E-1,2.413703979E0
1.560516867E1,-3.942202148E0,1.170416107E0,1.248254242E0,4.297553990E0
1.561521067E1,-5.070406036E0,2.113904114E0,2.173031158E0,5.907594467E0
1.562525167E1,-5.786217499E0,2.652933197E0,2.356549530E0,6.787613217E0
1.563529675E1,-6.180796967E0,2.947071533E0,1.492097168E0,7.008126406E0
1.564533775E1,-6.857389984E0,2.641107788E0,7.268884277E-1,7.384281585E0
1.565537975E1,-7.747439117E0,2.338287506E0,5.661227417E-1,8.112391528E0
1.566542075E1,-7.966733093E0,1.962269440E0,1.523980865E0,8.345169574E0
1.567546175E1,-7.558981018E0,1.804347839E0,1.846859436E0,7.987787862E0
1.568550275E1,-6.596332855E0,1.628164215E0,1.018182678E0,6.870168980E0
1.569554475E1,-5.360802155E0,9.897418213E-1,-1.839674377E-1,5.454505718E0
1.570558575E1,-4.238735504E0,8.141569519E-1,-1.494941254E0,4.567776217E0
1.571562675E1,-2.893782349E0,1.414558411E0,-2.573747864E0,4.123000102E0
1.572566775E1,-1.586700439E0,1.891616364E0,-3.117267609E0,3.976579950E0
1.573570975E1,-6.388714600E-1,1.759590912E0,-3.318898315E0,3.810433433E0
1.574575075E1,4.490661621E-2,1.294508057E0,-3.635639648E0,3.859487449E0
1.575579175E1,5.917195129E-1,9.092092896E-1,-4.084406433E0,4.226011054E0
1.576583375E1,9.267228699E-1,4.471202087E-1,-3.939507751E0,4.071664657E0
1.577587475E1,1.181343384E0,-2.585124207E-1,-3.847748566E0,4.033307562E0
1.578591575E1,1.240919495E0,-1.294208679E0,-4.010759583E0,4.393295998E0
1.579595675E1,6.483018494E-1,-2.273771667E0,-2.645897827E0,3.548395158E0
1.580599875E1,9.580078125E-3,-2.293530579E0,-1.114282837E0,2.549902064E0
1.581603975E1,-3.640429688E-1,-2.421813812E0,-7.267387390E-1,2.554576016E0
1.582608075E1,-1.021326141E0,-4.308490448E0,-8.478369141E-1,4.508328344E0
1.583612175E1,-1.906884613E0,-9.375902710E0,-1.180594940E0,9.640413112E0
1.584616375E1,-4.721930695E0,-2.254401947E1,-1.152004395E0,2.306201547E1
1.585620475E1,-4.425547028E0,-3.846012177E1,-1.422940979E0,3.874004638E1
1.586624575E1,-1.861977997E0,-5.243281540E1,-3.373085632E0,5.257418377E1
1.587628675E1,4.650828552E-1,-6.189643570E1,-3.779640198E0,6.201347220E1
1.588632875E1,2.858306122E0,-5.996380463E1,-1.798959045E0,6.005883809E1
1.589636975E1,3.037633209E0,-4.370745987E1,-1.349294128E0,4.383366125E1
1.590641075E1,2.683320007E0,-2.940784607E1,-2.523302765E0,2.963762260E1
1.591645175E1,3.392395477E0,-2.174168793E1,-2.826422424E0,2.218553593E1
1.592649375E1,3.949836273E0,-1.789289154E1,-2.523452454E0,1.849661014E1
1.593653475E1,4.461023254E0,-1.576147385E1,-2.069446564E0,1.651082661E1
1.594657575E1,5.233117676E0,-1.429392563E1,-1.919757843E0,1.534233687E1
1.595661775E1,5.850284271E0,-1.337962692E1,-8.364605713E-1,1.462668482E1
1.596665875E1,6.196214905E0,-1.260034744E1,6.185137939E-1,1.405504871E1
1.597669975E1,6.247109070E0,-1.150717072E1,1.455573120E0,1.317421887E1
1.598674075E1,5.793103180E0,-9.786648560E0,1.601819000E0,1.148496228E1
1.599678275E1,4.673730927E0,-7.626640320E0,1.797611847E0,9.123640265E0
1.600682375E1,3.264561310E0,-5.664670258E0,2.111509094E0,6.870540032E0
1.601686475E1,1.615141296E0,-3.753145294E0,1.174457703E0,4.251368239E0
1.602690575E1,-2.061213684E-1,-1.090781708E0,-1.206790466E0,1.639705456E0
1.603694775E1,-1.913021851E0,9.105564880E-1,-9.969268799E-1,2.341501425E0
1.604698875E1,-3.273692322E0,1.516496429E0,8.750802612E-1,3.712490849E0
1.605702975E1,-4.028123474E0,1.974394226E0,1.564247131E0,4.750882062E0
1.606707075E1,-4.266278229E0,2.190694427E0,1.406175842E0,4.997759748E0
1.607711275E1,-4.615951080E0,2.520758057E0,1.163081360E0,5.386463014E0
1.608715375E1,-5.766757965E0,2.547851715E0,4.125421143E-1,6.318008926E0
1.609719475E1,-6.125561829E0,2.384391632E0,-2.888992310E-1,6.579611990E0
1.610723675E1,-6.833140411E0,2.588267670E0,3.421884155E-1,7.314918340E0
1.611727775E1,-7.440577240E0,3.264561310E0,1.932780762E0,8.351957356E0
1.612731875E1,-6.146667938E0,3.122357025E0,9.648934937E-1,6.961440913E0
1.613735975E1,-4.690645752E0,1.952539673E0,-1.516047363E0,5.302166383E0
1.614740175E1,-3.527863770E0,9.372010803E-1,-3.916904755E0,5.354092967E0
1.615744275E1,-2.244282990E0,1.273551636E0,-4.985382843E0,5.613624675E0
1.616748375E1,-1.490899658E0,1.487307129E0,-4.826862488E0,5.266257282E0
1.617752475E1,-1.362317047E0,1.137634277E0,-4.149970093E0,4.513576327E0
1.618756675E1,-1.372795258E0,6.251000977E-1,-3.188669128E0,3.527453439E0
1.619760775E1,-1.158291321E0,1.501377869E-1,-2.108964386E0,2.410790518E0
1.620764875E1,-7.791297913E-1,-1.097218323E-1,-8.434959412E-1,1.153502282E0
1.621768975E1,-5.334906006E-1,-3.719764709E-1,-8.666976929E-2,6.561176455E-1
1.622773175E1,-7.539820862E-1,-1.181193695E0,1.544787598E-1,1.409812476E0
1.623777275E1,-1.680854645E0,-2.587968292E0,8.322692871E-2,3.087034004E0
1.624781375E1,-1.820963287E0,-5.548362122E0,-2.630928955E0,6.404843222E0
1.625785575E1,-1.346899109E0,-1.049018555E1,-7.195836182E0,1.279211430E1
1.626789675E1,-1.724863129E0,-1.318922287E1,-4.829556885E0,1.415116152E1
1.627793775E1,-2.016756134E0,-1.649554733E1,-1.691033478E0,1.670419053E1
1.628797875E1,-1.271156616E0,-2.144305893E1,-6.047424316E-1,2.148921424E1
1.629802075E1,-6.764433289E-1,-3.017425232E1,7.194039917E-1,3.019040610E1
1.630806175E1,4.170327759E-1,-4.135869415E1,2.140249329E0,4.141613412E1
1.631810275E1,5.834866333E-1,-5.232144699E1,2.631527710E0,5.239083135E1
1.632814375E1,1.611848145E0,-5.526657257E1,-3.062930603E0,5.537484665E1
1.633818575E1,3.021317139E0,-4.012316345E1,-3.887416077E0,4.042410922E1
1.634822675E1,2.308349762E0,-2.723496460E1,-1.728006592E0,2.738718281E1
1.635826775E1,2.689756622E0,-1.993898666E1,-2.601440277E0,2.028707646E1
1.636830975E1,3.173700256E0,-1.578617249E1,-3.659440155E0,1.651263508E1
1.637835075E1,3.443589020E0,-1.460976883E1,-4.197571106E0,1.558599544E1
1.638839175E1,3.830983429E0,-1.682680847E1,-4.638404388E0,1.786988284E1
1.639843275E1,3.847748566E0,-2.173585007E1,-5.376968536E0,2.271924598E1
1.640847475E1,3.147205353E0,-2.323558136E1,-6.010301514E0,2.420580234E1
1.641851575E1,2.540067902E0,-1.997356476E1,-5.791306915E0,2.095076299E1
1.642855675E1,2.482886810E0,-1.540656189E1,-4.885540466E0,1.635222865E1
1.643859775E1,2.341430969E0,-1.205398361E1,-3.216810608E0,1.269364764E1
1.644863975E1,1.821412354E0,-9.926457825E0,-1.559157715E0,1.021190877E1
1.645868075E1,7.408094788E-1,-8.320746918E0,-2.981799316E-1,8.358979556E0
1.646872175E1,-2.579136658E-1,-6.006409607E0,3.028202820E-1,6.019566093E0
1.647876375E1,-1.103804626E0,-3.329526215E0,7.276368713E-1,3.582399319E0
1.648880475E1,-2.198927307E0,-9.327104187E-1,1.080303497E0,2.621504468E0
1.649884575E1,-3.205883331E0,9.931846619E-1,1.347048798E0,3.616440815E0
1.650888675E1,-4.046535187E0,2.619103546E0,1.621428223E0,5.085585501E0
1.651892875E1,-4.865781555E0,4.226161652E0,1.893562317E0,6.717280007E0
1.652896975E1,-5.733078003E0,5.780978394E0,2.274370422E0,8.453440447E0
1.653901075E1,-5.883365479E0,6.278543701E0,2.927162933E0,9.088585324E0
1.654905175E1,-5.316943359E0,5.769901428E0,3.109034729E0,8.439653199E0
1.655909375E1,-4.644990692E0,4.823868713E0,2.921025696E0,7.306027581E0
